##Deconvoluted mass spectrum
1000.0 	 1
3335.6 	 0
3338.6 	 11
3338.7 	 11
3338.8 	 0
3345.2 	 0
3345.4 	 14
3345.5 	 16
3345.6 	 18
3345.7 	 19
3345.8 	 18
3345.9 	 18
3346.0 	 16
3346.1 	 14
3346.2 	 12
3346.3 	 11
3347.3 	 12
3347.4 	 12
3347.5 	 12
3347.6 	 13
3347.7 	 14
3347.8 	 14
3347.9 	 13
3348.0 	 12
3348.1 	 0
6531.3 	 0
6531.4 	 15
6531.5 	 20
6531.6 	 25
6531.7 	 30
6531.8 	 34
6531.9 	 39
6532.0 	 44
6532.1 	 49
6532.2 	 54
6532.3 	 59
6532.4 	 65
6532.5 	 71
6532.6 	 77
6532.7 	 83
6532.8 	 89
6532.9 	 104
6533.0 	 111
6533.1 	 118
6533.2 	 124
6533.3 	 128
6533.4 	 133
6533.5 	 138
6533.6 	 142
6533.7 	 147
6533.8 	 151
6533.9 	 155
6534.0 	 159
6534.1 	 164
6534.2 	 169
6534.3 	 174
6534.4 	 180
6534.5 	 185
6534.6 	 189
6534.7 	 194
6534.8 	 198
6534.9 	 202
6535.0 	 207
6535.1 	 212
6535.2 	 217
6535.3 	 222
6535.4 	 228
6535.5 	 233
6535.6 	 238
6535.7 	 243
6535.8 	 248
6535.9 	 252
6536.0 	 253
6536.1 	 255
6536.2 	 256
6536.3 	 258
6536.4 	 260
6536.5 	 262
6536.6 	 263
6536.7 	 265
6536.8 	 264
6536.9 	 255
6537.0 	 247
6537.1 	 239
6537.2 	 231
6537.3 	 222
6537.4 	 214
6537.5 	 206
6537.6 	 198
6537.7 	 177
6537.8 	 168
6537.9 	 159
6538.0 	 150
6538.1 	 140
6538.2 	 131
6538.3 	 122
6538.4 	 113
6538.5 	 104
6538.6 	 96
6538.7 	 91
6538.8 	 86
6538.9 	 81
6539.0 	 76
6539.1 	 71
6539.2 	 66
6539.3 	 61
6539.4 	 56
6539.5 	 53
6539.6 	 52
6539.7 	 51
6539.8 	 50
6539.9 	 49
6540.0 	 48
6540.1 	 47
6540.2 	 46
6540.3 	 46
6540.4 	 44
6540.5 	 43
6540.6 	 41
6540.7 	 39
6540.8 	 37
6540.9 	 36
6541.0 	 34
6541.1 	 32
6541.2 	 30
6541.3 	 28
6541.4 	 26
6541.5 	 24
6541.6 	 22
6541.7 	 20
6541.8 	 18
6541.9 	 16
6542.0 	 14
6542.1 	 12
6542.3 	 0
6665.6 	 0
6665.7 	 13
6665.8 	 19
6665.9 	 24
6666.0 	 30
6666.1 	 36
6666.2 	 54
6666.3 	 63
6666.4 	 215
6666.5 	 275
6666.6 	 337
6666.7 	 400
6666.8 	 462
6666.9 	 525
6667.0 	 587
6667.1 	 975
6667.2 	 1198
6667.3 	 1429
6667.4 	 1676
6667.5 	 1923
6667.6 	 2170
6667.7 	 2419
6667.8 	 2668
6667.9 	 2916
6668.0 	 3163
6668.1 	 3436
6668.2 	 3806
6668.3 	 4194
6668.4 	 4592
6668.5 	 4990
6668.6 	 5388
6668.7 	 5786
6668.8 	 6183
6668.9 	 6582
6669.0 	 6981
6669.1 	 7410
6669.2 	 7870
6669.3 	 8330
6669.4 	 8787
6669.5 	 9231
6669.6 	 9674
6669.7 	 10112
6669.8 	 10543
6669.9 	 10974
6670.0 	 11384
6670.1 	 11735
6670.2 	 12052
6670.3 	 12367
6670.4 	 12679
6670.5 	 12978
6670.6 	 13248
6670.7 	 13518
6670.8 	 13788
6670.9 	 14018
6671.0 	 14154
6671.1 	 14249
6671.2 	 14183
6671.3 	 14117
6671.4 	 14049
6671.5 	 13980
6671.6 	 13911
6671.7 	 13837
6671.8 	 13723
6671.9 	 13508
6672.0 	 13294
6672.1 	 13036
6672.2 	 12611
6672.3 	 12186
6672.4 	 11761
6672.5 	 11335
6672.6 	 10898
6672.7 	 10488
6672.8 	 10114
6672.9 	 9744
6673.0 	 9379
6673.1 	 8983
6673.2 	 8471
6673.3 	 7957
6673.4 	 7442
6673.5 	 6928
6673.6 	 6442
6673.7 	 6025
6673.8 	 5606
6673.9 	 5182
6674.0 	 4758
6674.1 	 4362
6674.2 	 4069
6674.3 	 3777
6674.4 	 3484
6674.5 	 3210
6674.6 	 2974
6674.7 	 2750
6674.8 	 2516
6674.9 	 2290
6675.0 	 2055
6675.1 	 1853
6675.2 	 1776
6675.3 	 1701
6675.4 	 1620
6675.5 	 1525
6675.6 	 1430
6675.7 	 1335
6675.8 	 1241
6675.9 	 1146
6676.0 	 1061
6676.1 	 970
6676.2 	 968
6676.3 	 965
6676.4 	 961
6676.5 	 957
6676.6 	 952
6676.7 	 948
6676.8 	 944
6676.9 	 928
6677.0 	 924
6677.1 	 913
6677.2 	 886
6677.3 	 859
6677.4 	 832
6677.5 	 806
6677.6 	 779
6677.7 	 753
6677.8 	 726
6677.9 	 700
6678.0 	 673
6678.1 	 647
6678.2 	 619
6678.3 	 599
6678.4 	 579
6678.5 	 559
6678.6 	 539
6678.7 	 518
6678.8 	 498
6678.9 	 478
6679.0 	 459
6679.1 	 444
6679.2 	 432
6679.3 	 418
6679.4 	 403
6679.5 	 388
6679.6 	 373
6679.7 	 358
6679.8 	 343
6679.9 	 260
6680.0 	 244
6680.1 	 230
6680.2 	 224
6680.3 	 219
6680.4 	 281
6680.5 	 274
6680.6 	 268
6680.7 	 262
6680.8 	 255
6680.9 	 247
6681.0 	 239
6681.1 	 233
6681.2 	 233
6681.3 	 233
6681.4 	 233
6681.5 	 209
6681.6 	 211
6681.7 	 213
6681.8 	 215
6681.9 	 216
6682.0 	 218
6682.1 	 55
6682.2 	 52
6682.3 	 48
6682.4 	 44
6682.5 	 41
6682.6 	 38
6682.7 	 38
6682.8 	 38
6682.9 	 38
6683.0 	 38
6683.1 	 232
6683.2 	 228
6683.3 	 224
6683.4 	 220
6683.5 	 216
6683.6 	 215
6683.7 	 213
6683.8 	 212
6683.9 	 212
6684.0 	 211
6684.1 	 210
6684.2 	 207
6684.3 	 186
6684.4 	 183
6684.5 	 180
6684.6 	 177
6684.7 	 174
6684.8 	 194
6684.9 	 143
6685.0 	 139
6685.1 	 135
6685.2 	 134
6685.3 	 200
6685.4 	 200
6685.5 	 199
6685.6 	 198
6685.7 	 198
6685.8 	 197
6685.9 	 196
6686.0 	 194
6686.1 	 182
6686.2 	 184
6686.3 	 184
6686.4 	 185
6686.5 	 186
6686.6 	 186
6686.7 	 187
6686.8 	 188
6686.9 	 188
6687.0 	 189
6687.1 	 189
6687.2 	 190
6687.3 	 191
6687.4 	 191
6687.5 	 192
6687.6 	 193
6687.7 	 193
6687.8 	 194
6687.9 	 195
6688.0 	 197
6688.1 	 201
6688.2 	 202
6688.3 	 203
6688.4 	 204
6688.5 	 205
6688.6 	 206
6688.7 	 195
6688.8 	 196
6688.9 	 198
6689.0 	 200
6689.1 	 204
6689.2 	 207
6689.3 	 227
6689.4 	 231
6689.5 	 234
6689.6 	 238
6689.7 	 242
6689.8 	 245
6689.9 	 244
6690.0 	 253
6690.1 	 256
6690.2 	 265
6690.3 	 274
6690.4 	 283
6690.5 	 292
6690.6 	 299
6690.7 	 306
6690.8 	 308
6690.9 	 322
6691.0 	 324
6691.1 	 328
6691.2 	 336
6691.3 	 344
6691.4 	 351
6691.5 	 358
6691.6 	 366
6691.7 	 376
6691.8 	 386
6691.9 	 396
6692.0 	 406
6692.1 	 406
6692.2 	 411
6692.3 	 416
6692.4 	 422
6692.5 	 428
6692.6 	 438
6692.7 	 448
6692.8 	 457
6692.9 	 467
6693.0 	 477
6693.1 	 484
6693.2 	 481
6693.3 	 477
6693.4 	 472
6693.5 	 467
6693.6 	 462
6693.7 	 457
6693.8 	 452
6693.9 	 447
6694.0 	 442
6694.1 	 437
6694.2 	 429
6694.3 	 419
6694.4 	 403
6694.5 	 378
6694.6 	 362
6694.7 	 346
6694.8 	 330
6694.9 	 314
6695.0 	 297
6695.1 	 282
6695.2 	 270
6695.3 	 258
6695.4 	 245
6695.5 	 232
6695.6 	 220
6695.7 	 207
6695.8 	 194
6695.9 	 180
6696.0 	 166
6696.1 	 156
6696.2 	 153
6696.3 	 151
6696.4 	 149
6696.5 	 146
6696.6 	 115
6696.7 	 114
6696.8 	 113
6696.9 	 112
6697.0 	 111
6697.1 	 109
6697.2 	 106
6697.3 	 103
6697.4 	 100
6697.5 	 113
6697.6 	 108
6697.7 	 104
6697.8 	 99
6697.9 	 95
6698.0 	 84
6698.1 	 82
6698.2 	 78
6698.3 	 75
6698.4 	 72
6698.5 	 68
6698.6 	 65
6698.7 	 61
6698.8 	 58
6698.9 	 54
6699.0 	 51
6699.1 	 48
6699.2 	 48
6699.3 	 35
6699.4 	 35
6699.5 	 35
6701.1 	 11
6701.2 	 11
6701.3 	 11
6701.4 	 11
6701.5 	 12
6701.6 	 50
6701.7 	 53
6701.8 	 56
6701.9 	 58
6702.0 	 61
6702.1 	 64
6702.2 	 69
6702.3 	 74
6702.4 	 78
6702.5 	 82
6702.6 	 86
6702.7 	 89
6702.8 	 93
6702.9 	 96
6703.0 	 100
6703.1 	 45
6703.2 	 46
6703.4 	 0
8700.0 	 1
##ESI mass spectrum
##Adduct mass = -1.0079
605.1 	 47
605.2 	 293
605.3 	 652
605.4 	 834
605.5 	 816
605.6 	 746
605.7 	 700
605.8 	 582
605.9 	 330
606.0 	 132
606.1 	 51
606.2 	 60
606.3 	 45
606.4 	 24
606.5 	 11
606.6 	 13
606.7 	 23
606.8 	 29
606.9 	 24
607.0 	 13
607.3 	 11
607.4 	 13
607.5 	 17
607.6 	 25
607.7 	 30
607.8 	 23
607.9 	 9
637.2 	 11
637.3 	 16
637.4 	 9
652.2 	 18
652.3 	 45
652.4 	 58
652.5 	 55
652.6 	 77
652.7 	 117
652.8 	 130
652.9 	 81
653.0 	 30
654.8 	 13
665.7 	 302
665.8 	 1410
665.9 	 3636
666.0 	 6269
666.1 	 8462
666.2 	 8635
666.3 	 6606
666.4 	 3115
666.5 	 931
666.6 	 342
666.7 	 590
666.8 	 497
666.9 	 328
667.0 	 182
667.1 	 140
667.2 	 180
667.3 	 194
667.4 	 154
667.5 	 100
667.6 	 87
667.7 	 120
667.8 	 138
667.9 	 110
668.0 	 86
668.1 	 150
668.2 	 268
668.3 	 330
668.4 	 252
668.5 	 147
668.6 	 91
668.7 	 89
668.8 	 71
668.9 	 35
669.2 	 36
669.3 	 58
669.4 	 50
669.5 	 30
669.6 	 25
669.7 	 40
669.8 	 42
669.9 	 22
671.1 	 13
671.2 	 37
671.3 	 58
671.4 	 51
671.5 	 36
671.6 	 28
671.7 	 27
671.8 	 20
671.9 	 9
707.8 	 14
707.9 	 15
708.0 	 20
708.1 	 21
708.2 	 15
724.7 	 14
724.8 	 57
724.9 	 111
725.0 	 144
725.1 	 188
725.2 	 239
725.3 	 254
725.4 	 180
725.5 	 97
725.6 	 53
725.7 	 45
725.8 	 29
725.9 	 11
727.2 	 13
727.3 	 15
739.7 	 129
739.8 	 575
739.9 	 1480
740.0 	 2585
740.1 	 3855
740.2 	 4483
740.3 	 3949
740.4 	 2131
740.5 	 754
740.6 	 267
740.7 	 368
740.8 	 289
740.9 	 186
741.0 	 97
741.1 	 60
741.2 	 68
741.3 	 67
741.4 	 49
741.5 	 27
741.6 	 26
741.7 	 46
741.8 	 67
741.9 	 66
742.0 	 46
742.1 	 45
742.2 	 81
742.3 	 132
742.4 	 143
742.5 	 114
742.6 	 108
742.7 	 141
742.8 	 161
742.9 	 105
743.0 	 37
743.2 	 11
743.3 	 13
743.6 	 11
743.7 	 35
743.8 	 47
743.9 	 34
744.0 	 16
744.1 	 13
744.2 	 18
744.3 	 17
745.2 	 10
745.3 	 16
745.4 	 10
745.8 	 12
745.9 	 12
746.0 	 9
746.1 	 11
746.2 	 17
746.3 	 20
746.4 	 13
815.6 	 9
815.7 	 16
815.8 	 20
815.9 	 16
816.0 	 12
816.1 	 12
816.2 	 12
825.4 	 12
825.5 	 15
825.6 	 10
832.2 	 11
832.3 	 56
832.4 	 133
832.5 	 194
832.6 	 291
832.7 	 404
832.8 	 468
832.9 	 356
833.0 	 218
833.1 	 141
833.2 	 131
833.3 	 99
833.4 	 54
833.5 	 20
834.6 	 10
834.7 	 11
835.2 	 18
835.3 	 26
835.4 	 22
835.5 	 14
835.6 	 10
835.7 	 9
835.8 	 9
912.6 	 12
912.7 	 19
912.8 	 19
912.9 	 9
914.3 	 9
951.3 	 11
951.4 	 34
951.5 	 57
951.6 	 92
951.7 	 139
951.8 	 179
951.9 	 173
952.0 	 142
952.1 	 114
952.2 	 97
952.3 	 74
952.4 	 38
952.5 	 11
954.7 	 9
954.8 	 13
954.9 	 12
955.0 	 9
988.2 	 9
988.3 	 10
1110.2 	 20
1110.3 	 34
1110.4 	 41
1110.5 	 46
1110.6 	 64
1110.7 	 87
1110.8 	 91
1110.9 	 66
1111.0 	 44
1111.1 	 35
1111.2 	 32
1111.3 	 21
1111.4 	 11
1111.7 	 9
1111.8 	 11
1111.9 	 11
1114.1 	 13
1114.2 	 19
1114.3 	 18
1114.4 	 11
1114.8 	 12
1114.9 	 14
1115.0 	 12
1332.8 	 15
1332.9 	 15
1333.0 	 10
1333.1 	 10
1333.2 	 12
1333.3 	 15
1333.4 	 13
1333.5 	 11
