##Deconvoluted mass spectrum
1000.0 	 1
5926.5 	 0
5926.6 	 22
5926.7 	 30
5926.8 	 37
5926.9 	 44
5927.0 	 60
5927.1 	 68
5927.2 	 76
5927.3 	 84
5927.4 	 92
5927.5 	 100
5927.6 	 112
5927.7 	 112
5927.8 	 123
5927.9 	 134
5928.0 	 145
5928.1 	 156
5928.2 	 167
5928.3 	 178
5928.4 	 189
5928.5 	 198
5928.6 	 206
5928.7 	 215
5928.8 	 224
5928.9 	 233
5929.0 	 242
5929.1 	 251
5929.2 	 260
5929.3 	 266
5929.4 	 264
5929.5 	 262
5929.6 	 261
5929.7 	 259
5929.8 	 258
5929.9 	 256
5930.0 	 255
5930.1 	 253
5930.2 	 250
5930.3 	 245
5930.4 	 240
5930.5 	 235
5930.6 	 230
5930.7 	 224
5930.8 	 219
5930.9 	 214
5931.0 	 209
5931.1 	 204
5931.2 	 201
5931.3 	 197
5931.4 	 194
5931.5 	 191
5931.6 	 187
5931.7 	 184
5931.8 	 181
5931.9 	 177
5932.0 	 175
5932.1 	 173
5932.2 	 172
5932.3 	 170
5932.4 	 169
5932.5 	 167
5932.6 	 166
5932.7 	 164
5932.8 	 163
5932.9 	 161
5933.0 	 157
5933.1 	 152
5933.2 	 148
5933.3 	 144
5933.4 	 140
5933.5 	 135
5933.6 	 131
5933.7 	 127
5933.8 	 122
5933.9 	 114
5934.0 	 107
5934.1 	 100
5934.2 	 92
5934.3 	 85
5934.4 	 78
5934.5 	 70
5934.6 	 63
5934.7 	 56
5934.8 	 51
5934.9 	 46
5935.0 	 41
5935.1 	 36
5935.2 	 30
5935.3 	 25
5935.4 	 20
5935.5 	 15
5935.7 	 0
6058.8 	 0
6058.9 	 17
6059.0 	 23
6059.1 	 29
6059.2 	 35
6059.3 	 57
6059.4 	 71
6059.5 	 86
6059.6 	 100
6059.7 	 65
6059.8 	 75
6059.9 	 94
6060.0 	 134
6060.1 	 158
6060.2 	 182
6060.3 	 206
6060.4 	 230
6060.5 	 374
6060.6 	 406
6060.7 	 443
6060.8 	 458
6060.9 	 520
6061.0 	 662
6061.1 	 854
6061.2 	 1007
6061.3 	 1160
6061.4 	 1314
6061.5 	 1465
6061.6 	 1661
6061.7 	 2013
6061.8 	 2442
6061.9 	 2869
6062.0 	 3295
6062.1 	 3723
6062.2 	 4154
6062.3 	 4585
6062.4 	 5016
6062.5 	 5478
6062.6 	 6030
6062.7 	 6582
6062.8 	 7137
6062.9 	 7693
6063.0 	 8250
6063.1 	 8807
6063.2 	 9361
6063.3 	 9860
6063.4 	 10254
6063.5 	 10628
6063.6 	 10999
6063.7 	 11371
6063.8 	 11744
6063.9 	 12117
6064.0 	 12490
6064.1 	 12808
6064.2 	 13026
6064.3 	 13119
6064.4 	 12930
6064.5 	 12742
6064.6 	 12553
6064.7 	 12364
6064.8 	 12175
6064.9 	 11958
6065.0 	 11699
6065.1 	 11440
6065.2 	 11133
6065.3 	 10705
6065.4 	 10277
6065.5 	 9849
6065.6 	 9422
6065.7 	 8990
6065.8 	 8544
6065.9 	 8099
6066.0 	 7653
6066.1 	 7227
6066.2 	 6849
6066.3 	 6474
6066.4 	 6102
6066.5 	 5728
6066.6 	 5337
6066.7 	 4961
6066.8 	 4586
6066.9 	 4210
6067.0 	 3880
6067.1 	 3660
6067.2 	 3436
6067.3 	 3237
6067.4 	 3081
6067.5 	 2924
6067.6 	 2767
6067.7 	 2610
6067.8 	 2452
6067.9 	 2295
6068.0 	 2139
6068.1 	 2008
6068.2 	 1914
6068.3 	 1821
6068.4 	 1712
6068.5 	 1620
6068.6 	 1528
6068.7 	 1437
6068.8 	 1346
6068.9 	 1274
6069.0 	 1227
6069.1 	 1163
6069.2 	 1120
6069.3 	 1078
6069.4 	 1035
6069.5 	 993
6069.6 	 950
6069.7 	 906
6069.8 	 863
6069.9 	 821
6070.0 	 778
6070.1 	 736
6070.2 	 699
6070.3 	 661
6070.4 	 623
6070.5 	 584
6070.6 	 548
6070.7 	 525
6070.8 	 503
6070.9 	 480
6071.0 	 458
6071.1 	 436
6071.2 	 418
6071.3 	 399
6071.4 	 381
6071.5 	 367
6071.6 	 363
6071.7 	 359
6071.8 	 355
6071.9 	 350
6072.0 	 346
6072.1 	 268
6072.2 	 271
6072.3 	 274
6072.4 	 276
6072.5 	 338
6072.6 	 332
6072.7 	 327
6072.8 	 322
6072.9 	 319
6073.0 	 318
6073.1 	 318
6073.2 	 317
6073.3 	 86
6073.4 	 87
6073.5 	 87
6073.6 	 88
6073.7 	 87
6073.8 	 278
6073.9 	 269
6074.0 	 261
6074.1 	 238
6074.2 	 231
6074.3 	 224
6074.4 	 217
6074.5 	 209
6074.6 	 200
6074.7 	 190
6074.8 	 181
6074.9 	 172
6075.0 	 162
6075.1 	 155
6075.2 	 151
6075.3 	 147
6075.4 	 143
6075.5 	 139
6075.6 	 135
6075.7 	 131
6075.8 	 127
6075.9 	 123
6076.0 	 121
6076.1 	 123
6076.2 	 126
6076.3 	 129
6076.4 	 132
6076.5 	 135
6076.6 	 138
6076.7 	 142
6076.8 	 145
6076.9 	 148
6077.0 	 151
6077.1 	 154
6077.2 	 157
6077.3 	 160
6077.4 	 53
6077.5 	 55
6077.6 	 57
6077.7 	 58
6077.8 	 59
6077.9 	 60
6078.0 	 60
6078.4 	 0
6078.5 	 62
6078.6 	 60
6078.7 	 58
6078.8 	 56
6078.9 	 54
6079.0 	 52
6079.1 	 50
6079.2 	 47
6079.3 	 45
6079.4 	 42
6079.5 	 40
6079.6 	 37
6079.7 	 34
6079.8 	 31
6079.9 	 28
6080.0 	 26
6080.1 	 24
6080.2 	 24
6080.3 	 24
6080.4 	 24
6080.5 	 24
6080.6 	 24
6080.7 	 24
6080.8 	 24
6080.9 	 25
6081.0 	 28
6081.1 	 31
6081.2 	 34
6081.3 	 38
6081.4 	 41
6081.5 	 44
6081.6 	 47
6081.7 	 50
6081.8 	 53
6081.9 	 57
6082.0 	 60
6082.1 	 63
6082.2 	 66
6082.3 	 70
6082.4 	 73
6082.5 	 75
6082.6 	 76
6082.7 	 76
6082.8 	 77
6082.9 	 78
6083.0 	 78
6083.1 	 79
6083.2 	 80
6083.3 	 80
6083.4 	 79
6083.5 	 79
6083.6 	 78
6083.7 	 78
6083.8 	 77
6083.9 	 77
6084.0 	 76
6084.1 	 76
6084.2 	 78
6084.3 	 79
6084.4 	 80
6084.5 	 90
6084.6 	 92
6084.7 	 94
6084.8 	 96
6084.9 	 98
6085.0 	 101
6085.1 	 104
6085.2 	 106
6085.3 	 109
6085.4 	 111
6085.5 	 113
6085.6 	 115
6085.7 	 116
6085.8 	 117
6085.9 	 117
6086.0 	 118
6086.1 	 118
6086.2 	 118
6086.3 	 119
6086.4 	 119
6086.5 	 118
6086.6 	 113
6086.7 	 109
6086.8 	 105
6086.9 	 101
6087.0 	 97
6087.1 	 93
6087.2 	 89
6087.3 	 84
6087.4 	 80
6087.5 	 75
6087.6 	 70
6087.7 	 65
6087.8 	 60
6087.9 	 56
6088.0 	 39
6088.1 	 35
6088.2 	 32
6088.3 	 30
6088.4 	 27
6088.5 	 24
6088.6 	 22
6088.7 	 19
6088.8 	 17
6088.9 	 15
6089.0 	 15
6089.1 	 15
6089.2 	 15
6089.3 	 14
6089.4 	 14
6089.5 	 14
6089.6 	 14
6089.7 	 14
6089.8 	 14
6089.9 	 13
6090.0 	 13
6090.1 	 12
6090.2 	 12
6090.3 	 12
6090.4 	 11
6090.5 	 11
6090.6 	 11
6090.7 	 11
6090.8 	 11
6094.1 	 9
6094.2 	 9
6094.3 	 9
6094.4 	 9
6094.6 	 0
7406.0 	 0
7406.1 	 18
7406.2 	 28
7406.3 	 38
7406.4 	 48
7406.5 	 58
7406.6 	 68
7406.7 	 78
7406.8 	 88
7406.9 	 98
7407.0 	 108
7407.1 	 119
7407.2 	 135
7407.3 	 150
7407.4 	 166
7407.5 	 182
7407.6 	 197
7407.7 	 213
7407.8 	 228
7407.9 	 244
7408.0 	 260
7408.1 	 274
7408.2 	 286
7408.3 	 298
7408.4 	 310
7408.5 	 322
7408.6 	 334
7408.7 	 346
7408.8 	 358
7408.9 	 370
7409.0 	 382
7409.1 	 392
7409.2 	 398
7409.3 	 403
7409.4 	 409
7409.5 	 414
7409.6 	 420
7409.7 	 425
7409.8 	 431
7409.9 	 436
7410.0 	 442
7410.1 	 448
7410.2 	 457
7410.3 	 466
7410.4 	 476
7410.5 	 485
7410.6 	 494
7410.7 	 503
7410.8 	 512
7410.9 	 522
7411.0 	 531
7411.1 	 540
7411.2 	 550
7411.3 	 560
7411.4 	 571
7411.5 	 581
7411.6 	 591
7411.7 	 601
7411.8 	 612
7411.9 	 622
7412.0 	 632
7412.1 	 640
7412.2 	 641
7412.3 	 642
7412.4 	 643
7412.5 	 644
7412.6 	 645
7412.7 	 646
7412.8 	 647
7412.9 	 648
7413.0 	 649
7413.1 	 646
7413.2 	 626
7413.3 	 606
7413.4 	 586
7413.5 	 567
7413.6 	 547
7413.7 	 527
7413.8 	 507
7413.9 	 487
7414.0 	 468
7414.1 	 448
7414.2 	 428
7414.3 	 408
7414.4 	 388
7414.5 	 368
7414.6 	 348
7414.7 	 328
7414.8 	 308
7414.9 	 288
7415.0 	 268
7415.1 	 250
7415.2 	 240
7415.3 	 230
7415.4 	 220
7415.5 	 210
7415.6 	 200
7415.7 	 190
7415.8 	 181
7415.9 	 171
7416.0 	 161
7416.1 	 153
7416.2 	 152
7416.3 	 152
7416.4 	 152
7416.5 	 151
7416.6 	 151
7416.7 	 150
7416.8 	 150
7416.9 	 150
7417.0 	 149
7417.1 	 148
7417.2 	 145
7417.3 	 142
7417.4 	 139
7417.5 	 136
7417.6 	 132
7417.7 	 129
7417.8 	 126
7417.9 	 123
7418.0 	 120
7418.1 	 116
7418.2 	 110
7418.3 	 105
7418.4 	 99
7418.5 	 94
7418.6 	 88
7418.7 	 83
7418.8 	 77
7418.9 	 72
7419.0 	 66
7419.1 	 61
7419.2 	 57
7419.3 	 52
7419.4 	 48
7419.5 	 44
7419.6 	 39
7419.7 	 35
7419.8 	 30
7419.9 	 26
7420.0 	 22
7420.2 	 0
7428.3 	 0
7428.4 	 115
7428.5 	 113
7428.6 	 111
7428.7 	 110
7428.8 	 108
7428.9 	 106
7429.0 	 104
7429.1 	 103
7429.2 	 101
7429.3 	 99
7429.4 	 98
7429.5 	 96
7429.6 	 93
7429.7 	 91
7429.8 	 88
7429.9 	 86
7430.0 	 83
7430.1 	 81
7430.2 	 78
7430.3 	 76
7430.4 	 74
7430.5 	 71
7430.6 	 69
7430.7 	 69
7430.8 	 68
7430.9 	 68
7431.0 	 68
7431.1 	 104
7431.2 	 111
7431.3 	 117
7431.4 	 124
7431.5 	 130
7431.6 	 137
7431.7 	 144
7431.8 	 153
7431.9 	 162
7432.0 	 170
7432.1 	 179
7432.2 	 187
7432.3 	 194
7432.4 	 202
7432.5 	 210
7432.6 	 218
7432.7 	 225
7432.8 	 233
7432.9 	 240
7433.0 	 247
7433.1 	 252
7433.2 	 251
7433.3 	 251
7433.4 	 250
7433.5 	 249
7433.6 	 248
7433.7 	 248
7433.8 	 247
7433.9 	 246
7434.0 	 243
7434.1 	 239
7434.2 	 235
7434.3 	 230
7434.4 	 225
7434.5 	 220
7434.6 	 216
7434.7 	 211
7434.8 	 206
7434.9 	 201
7435.0 	 196
7435.1 	 193
7435.2 	 191
7435.3 	 189
7435.4 	 188
7435.5 	 186
7435.6 	 185
7435.7 	 183
7435.8 	 182
7435.9 	 180
7436.0 	 178
7436.1 	 178
7436.2 	 182
7436.3 	 186
7436.4 	 189
7436.5 	 193
7436.6 	 197
7436.7 	 201
7436.8 	 205
7436.9 	 209
7437.0 	 213
7437.1 	 216
7437.2 	 217
7437.3 	 220
7437.4 	 223
7437.5 	 226
7437.6 	 229
7437.7 	 232
7437.8 	 235
7437.9 	 238
7438.0 	 241
7438.1 	 244
7438.2 	 243
7438.3 	 243
7438.4 	 240
7438.5 	 237
7438.6 	 234
7438.7 	 231
7438.8 	 228
7438.9 	 225
7439.0 	 222
7439.1 	 220
7439.2 	 222
7439.3 	 223
7439.4 	 223
7439.5 	 218
7439.6 	 172
7439.7 	 168
7439.8 	 164
7439.9 	 160
7440.0 	 156
7440.1 	 152
7440.2 	 148
7440.3 	 144
7440.4 	 140
7440.5 	 135
7440.6 	 131
7440.7 	 126
7440.8 	 121
7440.9 	 116
7441.0 	 112
7441.1 	 107
7441.2 	 102
7441.3 	 98
7441.4 	 93
7441.5 	 88
7441.6 	 105
7441.7 	 102
7441.8 	 99
7441.9 	 96
7442.0 	 93
7442.1 	 90
7442.2 	 90
7442.3 	 89
7442.4 	 88
7442.5 	 87
7442.6 	 86
7442.7 	 85
7442.8 	 86
7442.9 	 88
7443.0 	 89
7443.1 	 64
7443.2 	 64
7443.3 	 64
7443.4 	 64
7443.5 	 64
7443.6 	 65
7443.7 	 65
7443.8 	 65
7443.9 	 63
7444.0 	 62
7444.1 	 60
7444.2 	 59
7444.3 	 57
7444.4 	 56
7444.5 	 54
7444.6 	 52
7444.7 	 51
7444.8 	 49
7444.9 	 48
7445.0 	 45
7445.1 	 42
7445.2 	 40
7445.3 	 37
7445.4 	 34
7445.5 	 32
7445.6 	 29
7445.7 	 27
7445.8 	 24
7445.9 	 21
7446.0 	 19
7446.1 	 18
7446.2 	 18
7446.3 	 17
7446.4 	 16
7446.5 	 16
7447.7 	 7
7447.8 	 7
7447.9 	 6
7448.0 	 5
7448.1 	 5
7448.2 	 4
7448.3 	 6
7448.4 	 8
7448.5 	 10
7448.6 	 13
7448.7 	 15
7448.8 	 17
7448.9 	 19
7449.0 	 21
7449.1 	 23
7449.2 	 25
7449.3 	 27
7449.4 	 29
7449.5 	 31
7449.6 	 32
7449.7 	 34
7449.8 	 36
7449.9 	 38
7450.0 	 39
7450.1 	 41
7450.2 	 43
7450.3 	 44
7450.5 	 0
8100.0 	 1
##ESI mass spectrum
##Adduct mass = -1.0079
605.1 	 28
605.2 	 103
605.3 	 198
605.4 	 233
605.5 	 222
605.6 	 220
605.7 	 237
605.8 	 218
605.9 	 130
606.0 	 52
606.1 	 24
606.2 	 33
606.3 	 29
606.4 	 15
638.3 	 8
640.7 	 16
640.8 	 21
640.9 	 12
657.5 	 20
657.6 	 87
657.7 	 186
657.8 	 266
657.9 	 252
658.0 	 205
658.1 	 175
658.2 	 162
658.3 	 124
658.4 	 58
658.5 	 11
659.6 	 24
659.7 	 57
659.8 	 78
659.9 	 66
660.0 	 44
660.1 	 30
660.2 	 27
660.3 	 22
660.4 	 12
666.7 	 20
666.8 	 39
666.9 	 36
667.0 	 20
667.1 	 9
667.2 	 9
667.3 	 8
672.2 	 15
672.3 	 69
672.4 	 242
672.5 	 218
672.6 	 1619
672.7 	 4498
672.8 	 7137
672.9 	 6216
673.0 	 3766
673.1 	 1886
673.2 	 1414
673.3 	 970
673.4 	 571
673.5 	 303
673.6 	 212
673.7 	 245
673.8 	 230
673.9 	 164
674.0 	 98
674.1 	 79
674.2 	 103
674.3 	 115
674.4 	 96
674.5 	 69
674.6 	 66
674.7 	 87
674.8 	 99
674.9 	 84
675.0 	 71
675.1 	 101
675.2 	 155
675.3 	 180
675.4 	 136
675.5 	 84
675.6 	 63
675.7 	 65
675.8 	 48
675.9 	 19
676.1 	 4
676.2 	 27
676.3 	 46
676.4 	 39
676.5 	 26
676.6 	 27
676.7 	 38
676.8 	 36
676.9 	 17
677.0 	 2
677.2 	 9
677.3 	 15
677.4 	 9
677.5 	 2
678.6 	 16
678.7 	 45
678.8 	 64
678.9 	 42
679.0 	 15
679.1 	 3
679.2 	 6
679.3 	 5
679.4 	 3
685.7 	 7
685.8 	 11
685.9 	 7
686.2 	 2
686.3 	 4
686.4 	 2
687.3 	 2
690.8 	 2
717.7 	 2
717.8 	 4
717.9 	 2
721.2 	 4
721.3 	 6
721.4 	 4
723.1 	 2
723.2 	 10
723.3 	 14
723.4 	 8
723.5 	 2
739.6 	 16
739.7 	 116
739.8 	 272
739.9 	 391
740.0 	 446
740.1 	 538
740.2 	 640
740.3 	 650
740.4 	 452
740.5 	 252
740.6 	 153
740.7 	 149
740.8 	 117
740.9 	 62
741.0 	 18
742.1 	 35
742.2 	 104
742.3 	 162
742.4 	 144
742.5 	 110
742.6 	 106
742.7 	 118
742.8 	 99
742.9 	 47
743.2 	 16
743.3 	 26
743.4 	 16
750.2 	 16
750.3 	 23
750.4 	 14
756.4 	 13
756.6 	 150
756.7 	 1241
756.8 	 3301
756.9 	 5030
757.0 	 5542
757.1 	 4926
757.2 	 3829
757.3 	 2561
757.4 	 1228
757.5 	 433
757.6 	 188
757.7 	 264
757.8 	 223
757.9 	 147
758.0 	 77
758.1 	 52
758.2 	 67
758.3 	 70
758.4 	 54
758.5 	 40
758.6 	 44
758.7 	 58
758.8 	 63
758.9 	 46
759.0 	 24
759.1 	 24
759.2 	 49
759.3 	 75
759.4 	 80
759.5 	 76
759.6 	 85
759.7 	 103
759.8 	 107
759.9 	 73
760.0 	 36
760.1 	 15
760.2 	 14
760.3 	 11
760.8 	 9
761.2 	 8
761.3 	 14
761.4 	 9
761.7 	 9
761.8 	 14
761.9 	 8
763.2 	 16
763.3 	 42
763.4 	 52
763.5 	 38
763.6 	 27
763.7 	 31
763.8 	 34
763.9 	 19
771.7 	 9
771.8 	 15
771.9 	 10
797.8 	 8
835.3 	 10
835.4 	 9
835.7 	 9
835.8 	 8
845.7 	 8
845.8 	 11
848.3 	 9
857.8 	 10
864.7 	 19
864.8 	 53
864.9 	 88
865.0 	 108
865.1 	 157
865.2 	 232
865.3 	 280
865.4 	 221
865.5 	 136
865.6 	 84
865.7 	 77
865.8 	 63
865.9 	 41
866.0 	 19
868.2 	 9
868.3 	 14
868.4 	 13
868.5 	 12
868.6 	 13
868.7 	 12
871.3 	 9
1000.9 	 10
1001.0 	 8
1009.1 	 9
1009.2 	 32
1009.3 	 61
1009.4 	 76
1009.5 	 77
1009.6 	 89
1009.7 	 112
1009.8 	 122
1009.9 	 92
1010.0 	 54
1010.1 	 32
1010.2 	 30
1010.3 	 24
1010.4 	 14
1011.8 	 8
1011.9 	 8
1013.3 	 11
1013.4 	 10
1211.2 	 18
1211.3 	 32
1211.4 	 33
1211.5 	 27
1211.6 	 27
1211.7 	 37
1211.8 	 45
1211.9 	 37
1212.0 	 28
1212.1 	 22
1212.2 	 18
1212.3 	 11
