##Deconvoluted mass spectrum
1000.0 	 1
3277.4 	 0
3277.6 	 8
3277.7 	 10
3277.8 	 11
3277.9 	 13
3278.0 	 14
3278.1 	 16
3278.2 	 16
3278.3 	 17
3278.4 	 18
3278.5 	 19
3278.6 	 19
3278.7 	 19
3278.8 	 18
3278.9 	 18
3279.0 	 18
3279.1 	 17
3279.2 	 16
3279.3 	 15
3279.4 	 14
3279.5 	 12
3279.6 	 11
3279.7 	 10
3279.8 	 9
3279.9 	 8
3280.0 	 7
3280.1 	 0
5734.0 	 0
5734.1 	 19
5734.2 	 28
5734.3 	 37
5734.4 	 46
5734.5 	 75
5734.6 	 27
5734.7 	 34
5734.8 	 41
5734.9 	 85
5735.0 	 111
5735.1 	 137
5735.2 	 188
5735.3 	 219
5735.4 	 250
5735.5 	 281
5735.6 	 474
5735.7 	 516
5735.8 	 571
5735.9 	 659
5736.0 	 747
5736.1 	 870
5736.2 	 1058
5736.3 	 1247
5736.4 	 1436
5736.5 	 1624
5736.6 	 1814
5736.7 	 2022
5736.8 	 2268
5736.9 	 2521
5737.0 	 2788
5737.1 	 3060
5737.2 	 3359
5737.3 	 3656
5737.4 	 3954
5737.5 	 4251
5737.6 	 4578
5737.7 	 4966
5737.8 	 5344
5737.9 	 5717
5738.0 	 6085
5738.1 	 6440
5738.2 	 6753
5738.3 	 7065
5738.4 	 7377
5738.5 	 7650
5738.6 	 7846
5738.7 	 8035
5738.8 	 8215
5738.9 	 8396
5739.0 	 8577
5739.1 	 8742
5739.2 	 8859
5739.3 	 8967
5739.4 	 9010
5739.5 	 8924
5739.6 	 8838
5739.7 	 8753
5739.8 	 8668
5739.9 	 8583
5740.0 	 8498
5740.1 	 8419
5740.2 	 8335
5740.3 	 8181
5740.4 	 7858
5740.5 	 7534
5740.6 	 7213
5740.7 	 6893
5740.8 	 6576
5740.9 	 6269
5741.0 	 5978
5741.1 	 5687
5741.2 	 5398
5741.3 	 5144
5741.4 	 4891
5741.5 	 4646
5741.6 	 4390
5741.7 	 4125
5741.8 	 3863
5741.9 	 3601
5742.0 	 3339
5742.1 	 3115
5742.2 	 2977
5742.3 	 2838
5742.4 	 2698
5742.5 	 2558
5742.6 	 2414
5742.7 	 2272
5742.8 	 2130
5742.9 	 1989
5743.0 	 1875
5743.1 	 1825
5743.2 	 1766
5743.3 	 1708
5743.4 	 1653
5743.5 	 1598
5743.6 	 1539
5743.7 	 1488
5743.8 	 1436
5743.9 	 1361
5744.0 	 1273
5744.1 	 1203
5744.2 	 1166
5744.3 	 1115
5744.4 	 1054
5744.5 	 1004
5744.6 	 954
5744.7 	 914
5744.8 	 862
5744.9 	 810
5745.0 	 760
5745.1 	 716
5745.2 	 690
5745.3 	 664
5745.4 	 639
5745.5 	 613
5745.6 	 587
5745.7 	 552
5745.8 	 526
5745.9 	 501
5746.0 	 475
5746.1 	 453
5746.2 	 444
5746.3 	 435
5746.4 	 426
5746.5 	 368
5746.6 	 362
5746.7 	 362
5746.8 	 361
5746.9 	 398
5747.0 	 395
5747.1 	 390
5747.2 	 382
5747.3 	 373
5747.4 	 365
5747.5 	 358
5747.6 	 356
5747.7 	 354
5747.8 	 351
5747.9 	 349
5748.0 	 346
5748.1 	 344
5748.2 	 341
5748.3 	 337
5748.4 	 180
5748.5 	 166
5748.6 	 160
5748.7 	 154
5748.8 	 147
5748.9 	 295
5749.0 	 288
5749.1 	 152
5749.2 	 151
5749.3 	 162
5749.4 	 157
5749.5 	 153
5749.6 	 250
5749.7 	 240
5749.8 	 230
5749.9 	 214
5750.0 	 204
5750.1 	 196
5750.2 	 191
5750.3 	 186
5750.4 	 182
5750.5 	 177
5750.6 	 171
5750.7 	 165
5750.8 	 159
5750.9 	 153
5751.0 	 147
5751.1 	 143
5751.2 	 145
5751.3 	 146
5751.4 	 148
5751.5 	 150
5751.6 	 152
5751.7 	 154
5751.8 	 156
5751.9 	 157
5752.0 	 160
5752.1 	 165
5752.2 	 169
5752.3 	 173
5752.4 	 177
5752.5 	 181
5752.6 	 185
5752.7 	 189
5752.8 	 194
5752.9 	 198
5753.0 	 201
5753.1 	 204
5753.2 	 203
5753.3 	 203
5753.4 	 203
5753.5 	 203
5753.6 	 202
5753.7 	 202
5753.8 	 200
5753.9 	 194
5754.0 	 189
5754.1 	 157
5754.2 	 151
5754.3 	 145
5754.4 	 138
5754.5 	 161
5754.6 	 154
5754.7 	 146
5754.8 	 138
5754.9 	 130
5755.0 	 122
5755.1 	 115
5755.2 	 110
5755.3 	 104
5755.4 	 98
5755.5 	 92
5755.6 	 86
5755.7 	 83
5755.8 	 80
5755.9 	 78
5756.0 	 75
5756.1 	 72
5756.2 	 73
5756.3 	 73
5756.4 	 73
5756.5 	 74
5756.6 	 79
5756.7 	 83
5756.8 	 87
5756.9 	 91
5757.0 	 96
5757.1 	 102
5757.2 	 107
5757.3 	 112
5757.4 	 117
5757.5 	 122
5757.6 	 127
5757.7 	 132
5757.8 	 138
5757.9 	 144
5758.0 	 150
5758.1 	 155
5758.2 	 159
5758.3 	 94
5758.4 	 96
5758.5 	 98
5758.6 	 99
5758.7 	 100
5758.8 	 180
5758.9 	 181
5759.0 	 182
5759.1 	 182
5759.2 	 181
5759.3 	 180
5759.4 	 178
5759.5 	 176
5759.6 	 174
5759.7 	 171
5759.8 	 168
5759.9 	 164
5760.0 	 160
5760.1 	 158
5760.2 	 158
5760.3 	 158
5760.4 	 159
5760.5 	 159
5760.6 	 160
5760.7 	 161
5760.8 	 161
5760.9 	 162
5761.0 	 163
5761.1 	 161
5761.2 	 165
5761.3 	 170
5761.4 	 174
5761.5 	 179
5761.6 	 184
5761.7 	 188
5761.8 	 192
5761.9 	 195
5762.0 	 197
5762.1 	 198
5762.2 	 198
5762.3 	 199
5762.4 	 199
5762.5 	 199
5762.6 	 198
5762.7 	 197
5762.8 	 194
5762.9 	 189
5763.0 	 183
5763.1 	 113
5763.2 	 107
5763.3 	 102
5763.4 	 96
5763.5 	 91
5763.6 	 139
5763.7 	 131
5763.8 	 123
5763.9 	 116
5764.0 	 108
5764.1 	 93
5764.2 	 87
5764.3 	 81
5764.4 	 74
5764.5 	 68
5764.6 	 63
5764.7 	 59
5764.8 	 56
5764.9 	 52
5765.0 	 49
5765.1 	 46
5765.2 	 44
5765.3 	 42
5765.4 	 40
5765.5 	 39
5765.6 	 40
5765.7 	 40
5765.8 	 41
5765.9 	 41
5766.0 	 42
5766.1 	 42
5766.2 	 44
5766.3 	 47
5766.4 	 48
5766.5 	 50
5766.6 	 51
5766.7 	 52
5766.8 	 53
5766.9 	 54
5767.0 	 55
5767.1 	 56
5767.2 	 57
5767.3 	 57
5767.4 	 57
5767.5 	 56
5767.6 	 55
5767.7 	 55
5767.8 	 54
5767.9 	 53
5768.0 	 52
5768.1 	 52
5768.2 	 50
5768.3 	 47
5768.4 	 45
5768.5 	 43
5768.6 	 41
5768.7 	 38
5768.8 	 36
5768.9 	 34
5769.0 	 32
5769.1 	 30
5769.2 	 30
5769.3 	 29
5769.4 	 29
5769.5 	 28
5769.6 	 16
5769.7 	 16
5769.8 	 16
5769.9 	 15
5770.0 	 15
5770.1 	 16
5770.2 	 16
5770.3 	 16
5770.4 	 17
5770.5 	 17
5770.6 	 18
5770.7 	 18
5770.8 	 19
5770.9 	 19
5771.0 	 19
5771.1 	 20
5771.2 	 20
5771.3 	 20
5771.4 	 21
5771.5 	 21
5771.6 	 21
5771.7 	 22
5771.9 	 0
5772.6 	 9
5772.7 	 9
5772.8 	 9
5772.9 	 9
5773.0 	 9
5773.1 	 9
5773.2 	 10
5773.3 	 10
5773.4 	 10
5773.5 	 11
5773.6 	 11
5773.7 	 12
5773.8 	 12
5773.9 	 12
5774.0 	 13
5774.2 	 0
7700.0 	 1
##ESI mass spectrum
##Adduct mass = -1.0079
561.3 	 8
572.4 	 17
572.6 	 199
572.7 	 932
572.8 	 1988
572.9 	 2493
573.0 	 2392
573.1 	 2011
573.2 	 1648
573.3 	 1208
573.4 	 663
573.5 	 301
573.6 	 176
573.7 	 212
573.8 	 192
573.9 	 130
574.0 	 74
574.1 	 66
574.2 	 94
574.3 	 102
574.4 	 72
574.5 	 38
574.6 	 30
574.7 	 49
574.8 	 65
574.9 	 60
575.0 	 48
575.1 	 50
575.2 	 63
575.3 	 65
575.4 	 42
575.5 	 19
575.6 	 11
575.7 	 18
575.8 	 21
575.9 	 12
576.3 	 9
576.4 	 13
576.5 	 12
576.6 	 8
576.7 	 6
578.2 	 9
578.3 	 15
578.4 	 9
589.3 	 9
589.4 	 6
621.6 	 19
621.7 	 41
621.8 	 59
621.9 	 43
622.0 	 18
623.7 	 20
623.8 	 30
623.9 	 19
636.2 	 16
636.3 	 173
636.4 	 750
636.5 	 1782
636.6 	 3669
636.7 	 5205
636.8 	 5131
636.9 	 2922
637.0 	 1048
637.1 	 361
637.2 	 501
637.3 	 407
637.4 	 275
637.5 	 168
637.6 	 134
637.7 	 153
637.8 	 143
637.9 	 100
638.0 	 61
638.1 	 59
638.2 	 84
638.3 	 96
638.4 	 69
638.5 	 32
638.6 	 24
638.7 	 50
638.8 	 78
638.9 	 79
639.0 	 73
639.1 	 84
639.2 	 106
639.3 	 106
639.4 	 69
639.5 	 33
639.6 	 23
639.7 	 35
639.8 	 39
639.9 	 30
640.0 	 18
640.1 	 15
640.2 	 19
640.3 	 22
640.4 	 13
640.7 	 6
640.8 	 9
640.9 	 6
642.2 	 6
642.3 	 10
642.4 	 6
654.5 	 7
654.6 	 15
654.7 	 19
654.8 	 18
654.9 	 12
655.0 	 7
699.4 	 6
699.5 	 6
699.6 	 8
699.7 	 12
699.8 	 13
699.9 	 7
701.7 	 11
701.8 	 15
701.9 	 9
702.3 	 6
715.8 	 17
715.9 	 75
716.0 	 137
716.1 	 454
716.2 	 942
716.3 	 1296
716.4 	 1055
716.5 	 655
716.6 	 409
716.7 	 373
716.8 	 284
716.9 	 160
717.0 	 72
717.1 	 46
717.2 	 57
717.3 	 49
717.4 	 26
717.5 	 6
717.7 	 15
717.8 	 21
717.9 	 14
718.0 	 8
718.1 	 12
718.2 	 23
718.3 	 29
718.4 	 25
718.5 	 15
718.6 	 9
718.7 	 13
718.8 	 21
718.9 	 23
719.0 	 19
719.1 	 21
719.2 	 28
719.3 	 30
719.4 	 18
719.5 	 8
720.7 	 11
720.8 	 16
720.9 	 10
746.7 	 9
746.8 	 15
746.9 	 13
747.0 	 8
769.3 	 6
782.8 	 7
784.9 	 6
785.0 	 6
785.1 	 6
785.2 	 7
785.3 	 6
818.3 	 22
818.4 	 54
818.5 	 85
818.6 	 149
818.7 	 225
818.8 	 265
818.9 	 203
819.0 	 125
819.1 	 91
819.2 	 95
819.3 	 81
819.4 	 44
819.5 	 14
819.7 	 9
819.8 	 10
820.3 	 7
820.4 	 7
821.6 	 10
821.7 	 20
821.8 	 23
821.9 	 14
822.0 	 6
825.4 	 6
834.2 	 8
834.3 	 10
877.6 	 6
877.7 	 6
903.3 	 6
911.8 	 6
911.9 	 6
912.0 	 6
917.1 	 7
917.2 	 10
917.3 	 12
917.4 	 10
917.5 	 7
924.8 	 7
935.7 	 6
935.8 	 8
935.9 	 6
954.8 	 14
954.9 	 24
955.0 	 26
955.1 	 50
955.2 	 96
955.3 	 137
955.4 	 134
955.5 	 113
955.6 	 102
955.7 	 102
955.8 	 89
955.9 	 58
956.0 	 34
956.1 	 23
956.2 	 22
956.3 	 17
956.4 	 10
959.0 	 6
959.1 	 7
959.2 	 6
959.8 	 8
1074.1 	 8
1074.2 	 8
1074.3 	 6
1099.2 	 6
1099.3 	 7
1113.9 	 7
1114.0 	 6
1114.1 	 7
1114.2 	 8
1114.3 	 8
1146.1 	 6
1146.2 	 18
1146.3 	 29
1146.4 	 30
1146.5 	 26
1146.6 	 32
1146.7 	 48
1146.8 	 57
1146.9 	 38
1147.0 	 16
1147.1 	 6
1147.2 	 10
1147.3 	 12
1147.4 	 11
1147.5 	 7
1147.6 	 6
1147.7 	 6
1225.2 	 7
1225.3 	 8
1433.0 	 7
1433.1 	 11
1433.2 	 15
1433.3 	 18
1433.4 	 16
1433.5 	 13
1433.6 	 11
1433.7 	 12
1433.8 	 13
1433.9 	 11
1434.0 	 7
1434.1 	 6
1434.2 	 8
1434.3 	 10
1434.4 	 7
