##Deconvoluted mass spectrum
1000.0 	 1
3850.7 	 0
3850.9 	 17
3851.0 	 18
3851.1 	 19
3851.2 	 20
3851.3 	 20
3851.4 	 20
3851.5 	 19
3851.6 	 19
3851.7 	 19
3851.8 	 18
3851.9 	 18
3852.0 	 17
3852.1 	 0
7351.0 	 0
7351.1 	 8
7351.2 	 13
7351.3 	 18
7351.4 	 23
7351.5 	 28
7351.6 	 34
7351.7 	 39
7351.8 	 44
7351.9 	 49
7352.0 	 54
7352.1 	 60
7352.2 	 67
7352.3 	 74
7352.4 	 81
7352.5 	 88
7352.6 	 95
7352.7 	 102
7352.8 	 109
7352.9 	 116
7353.0 	 123
7353.1 	 129
7353.2 	 131
7353.3 	 132
7353.4 	 134
7353.5 	 135
7353.6 	 136
7353.7 	 138
7353.8 	 139
7353.9 	 140
7354.0 	 142
7354.1 	 142
7354.2 	 138
7354.3 	 134
7354.4 	 129
7354.5 	 125
7354.6 	 121
7354.7 	 141
7354.8 	 138
7354.9 	 136
7355.0 	 134
7355.1 	 132
7355.2 	 130
7355.3 	 127
7355.4 	 124
7355.5 	 122
7355.6 	 119
7355.7 	 117
7355.8 	 114
7355.9 	 110
7356.0 	 106
7356.1 	 103
7356.2 	 102
7356.3 	 102
7356.4 	 102
7356.5 	 101
7356.6 	 101
7356.7 	 101
7356.8 	 100
7356.9 	 100
7357.0 	 96
7357.1 	 93
7357.2 	 90
7357.3 	 87
7357.4 	 84
7357.5 	 81
7357.6 	 78
7357.7 	 75
7357.8 	 72
7357.9 	 69
7358.0 	 66
7358.1 	 63
7358.2 	 59
7358.3 	 55
7358.4 	 52
7358.5 	 48
7358.6 	 44
7358.7 	 40
7358.8 	 36
7358.9 	 32
7359.0 	 28
7359.1 	 25
7359.2 	 23
7359.3 	 22
7359.4 	 20
7359.5 	 18
7359.6 	 17
7359.7 	 10
7359.8 	 8
7359.9 	 7
7360.0 	 5
7360.2 	 0
7366.3 	 6
7366.4 	 6
7366.5 	 6
7366.6 	 6
7366.7 	 6
7366.8 	 6
7366.9 	 6
7367.0 	 7
7367.1 	 7
7367.2 	 7
7367.3 	 7
7367.8 	 0
7367.9 	 9
7368.0 	 9
7368.1 	 24
7368.2 	 23
7368.3 	 23
7368.4 	 22
7368.5 	 21
7368.6 	 20
7368.7 	 19
7368.8 	 18
7368.9 	 17
7369.0 	 16
7369.1 	 16
7369.2 	 15
7369.3 	 14
7369.4 	 13
7369.5 	 12
7369.6 	 6
7369.7 	 5
7369.8 	 4
7369.9 	 3
7370.0 	 3
7370.1 	 2
7370.2 	 2
7370.3 	 2
7370.4 	 3
7370.5 	 3
7371.6 	 5
7371.7 	 5
7371.8 	 10
7371.9 	 10
7372.0 	 10
7372.1 	 10
7372.2 	 10
7372.3 	 11
7372.4 	 11
7372.5 	 12
7372.6 	 12
7372.7 	 13
7372.8 	 14
7372.9 	 14
7373.0 	 15
7373.1 	 15
7373.2 	 15
7373.3 	 15
7373.4 	 15
7373.5 	 14
7373.6 	 14
7373.7 	 13
7373.8 	 13
7373.9 	 12
7374.0 	 12
7374.1 	 11
7374.2 	 11
7374.3 	 10
7374.4 	 10
7374.5 	 10
7374.6 	 4
7374.7 	 4
7374.8 	 4
7374.9 	 4
7375.0 	 4
7375.6 	 6
7375.7 	 6
7375.8 	 6
7375.9 	 6
7376.0 	 6
7376.1 	 6
7376.2 	 13
7376.3 	 15
7376.4 	 17
7376.5 	 19
7376.6 	 22
7376.7 	 24
7376.8 	 29
7376.9 	 33
7377.0 	 38
7377.1 	 42
7377.2 	 46
7377.3 	 50
7377.4 	 60
7377.5 	 64
7377.6 	 69
7377.7 	 73
7377.8 	 78
7377.9 	 83
7378.0 	 89
7378.1 	 94
7378.2 	 96
7378.3 	 98
7378.4 	 99
7378.5 	 101
7378.6 	 103
7378.7 	 104
7378.8 	 106
7378.9 	 107
7379.0 	 105
7379.1 	 103
7379.2 	 101
7379.3 	 98
7379.4 	 95
7379.5 	 92
7379.6 	 89
7379.7 	 86
7379.8 	 83
7379.9 	 80
7380.0 	 77
7380.1 	 66
7380.2 	 63
7380.3 	 60
7380.4 	 57
7380.5 	 54
7380.6 	 47
7380.7 	 45
7380.8 	 42
7380.9 	 39
7381.0 	 36
7381.1 	 34
7381.2 	 33
7381.3 	 32
7381.4 	 31
7381.5 	 32
7381.6 	 31
7381.7 	 30
7381.8 	 28
7381.9 	 27
7382.0 	 26
7382.1 	 25
7382.2 	 25
7382.3 	 26
7382.4 	 28
7382.5 	 30
7382.6 	 32
7382.7 	 33
7382.8 	 35
7382.9 	 37
7383.0 	 38
7383.1 	 40
7383.2 	 41
7383.3 	 42
7383.4 	 43
7383.5 	 44
7383.6 	 44
7383.7 	 45
7383.8 	 46
7383.9 	 46
7384.0 	 47
7384.1 	 48
7384.2 	 47
7384.3 	 47
7384.4 	 48
7384.5 	 46
7384.6 	 44
7384.7 	 42
7384.8 	 40
7384.9 	 38
7385.0 	 36
7385.1 	 34
7385.2 	 32
7385.3 	 30
7385.4 	 28
7385.5 	 26
7385.6 	 24
7385.7 	 22
7385.8 	 20
7385.9 	 18
7386.0 	 16
7386.1 	 14
7386.2 	 12
7386.3 	 10
7386.4 	 8
7386.5 	 6
7386.7 	 0
7387.8 	 2
7387.9 	 2
7388.0 	 2
7388.1 	 2
7388.3 	 0
7542.0 	 0
7542.1 	 4
7542.2 	 6
7542.3 	 9
7542.4 	 12
7542.5 	 15
7542.6 	 18
7542.7 	 20
7542.8 	 23
7542.9 	 26
7543.0 	 29
7543.1 	 32
7543.2 	 36
7543.3 	 41
7543.4 	 45
7543.5 	 50
7543.6 	 54
7543.7 	 58
7543.8 	 63
7543.9 	 67
7544.0 	 72
7544.1 	 75
7544.2 	 77
7544.3 	 79
7544.4 	 81
7544.5 	 83
7544.6 	 84
7544.7 	 86
7544.8 	 92
7544.9 	 95
7545.0 	 108
7545.1 	 115
7545.2 	 127
7545.3 	 139
7545.4 	 151
7545.5 	 163
7545.6 	 175
7545.7 	 187
7545.8 	 198
7545.9 	 210
7546.0 	 221
7546.1 	 235
7546.2 	 258
7546.3 	 281
7546.4 	 305
7546.5 	 328
7546.6 	 351
7546.7 	 374
7546.8 	 396
7546.9 	 419
7547.0 	 442
7547.1 	 464
7547.2 	 482
7547.3 	 502
7547.4 	 522
7547.5 	 543
7547.6 	 562
7547.7 	 582
7547.8 	 602
7547.9 	 622
7548.0 	 642
7548.1 	 657
7548.2 	 657
7548.3 	 657
7548.4 	 653
7548.5 	 649
7548.6 	 646
7548.7 	 642
7548.8 	 638
7548.9 	 634
7549.0 	 630
7549.1 	 626
7549.2 	 619
7549.3 	 612
7549.4 	 602
7549.5 	 583
7549.6 	 564
7549.7 	 545
7549.8 	 526
7549.9 	 508
7550.0 	 489
7550.1 	 471
7550.2 	 446
7550.3 	 434
7550.4 	 422
7550.5 	 410
7550.6 	 398
7550.7 	 387
7550.8 	 375
7550.9 	 363
7551.0 	 351
7551.1 	 340
7551.2 	 332
7551.3 	 325
7551.4 	 317
7551.5 	 310
7551.6 	 303
7551.7 	 300
7551.8 	 296
7551.9 	 293
7552.0 	 290
7552.1 	 286
7552.2 	 279
7552.3 	 272
7552.4 	 265
7552.5 	 258
7552.6 	 250
7552.7 	 244
7552.8 	 239
7552.9 	 234
7553.0 	 229
7553.1 	 224
7553.2 	 217
7553.3 	 211
7553.4 	 204
7553.5 	 198
7553.6 	 192
7553.7 	 185
7553.8 	 178
7553.9 	 168
7554.0 	 158
7554.1 	 148
7554.2 	 140
7554.3 	 132
7554.4 	 124
7554.5 	 116
7554.6 	 108
7554.7 	 100
7554.8 	 92
7554.9 	 84
7555.0 	 75
7555.1 	 58
7555.2 	 54
7555.3 	 50
7555.4 	 46
7555.5 	 42
7555.6 	 38
7555.7 	 34
7555.8 	 30
7555.9 	 26
7556.0 	 23
7556.1 	 22
7556.2 	 22
7556.3 	 21
7556.4 	 21
7556.5 	 20
7558.8 	 8
7558.9 	 8
7559.0 	 8
7559.1 	 7
7559.2 	 6
7559.3 	 6
7559.4 	 6
7559.5 	 7
7559.6 	 7
7559.7 	 8
7559.8 	 8
7559.9 	 8
7560.0 	 9
7560.1 	 9
7560.2 	 9
7560.3 	 10
7560.5 	 0
7676.4 	 0
7676.5 	 19
7676.6 	 22
7676.7 	 26
7676.8 	 29
7676.9 	 32
7677.0 	 36
7677.1 	 57
7677.2 	 72
7677.3 	 87
7677.4 	 103
7677.5 	 118
7677.6 	 133
7677.7 	 149
7677.8 	 167
7677.9 	 185
7678.0 	 203
7678.1 	 226
7678.2 	 269
7678.3 	 312
7678.4 	 355
7678.5 	 418
7678.6 	 464
7678.7 	 510
7678.8 	 556
7678.9 	 666
7679.0 	 718
7679.1 	 772
7679.2 	 1012
7679.3 	 1259
7679.4 	 1507
7679.5 	 1772
7679.6 	 2022
7679.7 	 2272
7679.8 	 2575
7679.9 	 2837
7680.0 	 3098
7680.1 	 3403
7680.2 	 3884
7680.3 	 4395
7680.4 	 5101
7680.5 	 5808
7680.6 	 6513
7680.7 	 7217
7680.8 	 7918
7680.9 	 8620
7681.0 	 9325
7681.1 	 10052
7681.2 	 10860
7681.3 	 11661
7681.4 	 12494
7681.5 	 13335
7681.6 	 14175
7681.7 	 15014
7681.8 	 15850
7681.9 	 16681
7682.0 	 17507
7682.1 	 18307
7682.2 	 19008
7682.3 	 19708
7682.4 	 20408
7682.5 	 21069
7682.6 	 21499
7682.7 	 21930
7682.8 	 22361
7682.9 	 22792
7683.0 	 23224
7683.1 	 23567
7683.2 	 23580
7683.3 	 23593
7683.4 	 23604
7683.5 	 23610
7683.6 	 23577
7683.7 	 23279
7683.8 	 22907
7683.9 	 22534
7684.0 	 22160
7684.1 	 21769
7684.2 	 21315
7684.3 	 20855
7684.4 	 20383
7684.5 	 19912
7684.6 	 19441
7684.7 	 18947
7684.8 	 18319
7684.9 	 17690
7685.0 	 17030
7685.1 	 16399
7685.2 	 15873
7685.3 	 15348
7685.4 	 14825
7685.5 	 14301
7685.6 	 13777
7685.7 	 13252
7685.8 	 12723
7685.9 	 12178
7686.0 	 11633
7686.1 	 11126
7686.2 	 10764
7686.3 	 10402
7686.4 	 10040
7686.5 	 9677
7686.6 	 9315
7686.7 	 8936
7686.8 	 8576
7686.9 	 8220
7687.0 	 7883
7687.1 	 7546
7687.2 	 7194
7687.3 	 6844
7687.4 	 6519
7687.5 	 6194
7687.6 	 5869
7687.7 	 5543
7687.8 	 5218
7687.9 	 4892
7688.0 	 4579
7688.1 	 4372
7688.2 	 4154
7688.3 	 3950
7688.4 	 3746
7688.5 	 3543
7688.6 	 3333
7688.7 	 3124
7688.8 	 2915
7688.9 	 2691
7689.0 	 2482
7689.1 	 2289
7689.2 	 2200
7689.3 	 2112
7689.4 	 2024
7689.5 	 1935
7689.6 	 1847
7689.7 	 1759
7689.8 	 1669
7689.9 	 1578
7690.0 	 1488
7690.1 	 1400
7690.2 	 1304
7690.3 	 1292
7690.4 	 1280
7690.5 	 1267
7690.6 	 1255
7690.7 	 1243
7690.8 	 1230
7690.9 	 1218
7691.0 	 1215
7691.1 	 1214
7691.2 	 1222
7691.3 	 1227
7691.4 	 1207
7691.5 	 1187
7691.6 	 1167
7691.7 	 1147
7691.8 	 1127
7691.9 	 1107
7692.0 	 1105
7692.1 	 1084
7692.2 	 1072
7692.3 	 1061
7692.4 	 1032
7692.5 	 1007
7692.6 	 981
7692.7 	 956
7692.8 	 931
7692.9 	 920
7693.0 	 895
7693.1 	 742
7693.2 	 718
7693.3 	 694
7693.4 	 676
7693.5 	 658
7693.6 	 642
7693.7 	 627
7693.8 	 595
7693.9 	 579
7694.0 	 563
7694.1 	 639
7694.2 	 619
7694.3 	 599
7694.4 	 580
7694.5 	 560
7694.6 	 237
7694.7 	 231
7694.8 	 226
7694.9 	 220
7695.0 	 215
7695.1 	 210
7695.2 	 475
7695.3 	 468
7695.4 	 461
7695.5 	 453
7695.6 	 446
7695.7 	 297
7695.8 	 302
7695.9 	 308
7696.0 	 313
7696.1 	 320
7696.2 	 328
7696.3 	 449
7696.4 	 452
7696.5 	 455
7696.6 	 459
7696.7 	 462
7696.8 	 465
7696.9 	 465
7697.0 	 465
7697.1 	 465
7697.2 	 464
7697.3 	 462
7697.4 	 461
7697.5 	 460
7697.6 	 458
7697.7 	 457
7697.8 	 456
7697.9 	 453
7698.0 	 445
7698.1 	 436
7698.2 	 427
7698.3 	 418
7698.4 	 409
7698.5 	 400
7698.6 	 391
7698.7 	 382
7698.8 	 373
7698.9 	 364
7699.0 	 354
7699.1 	 344
7699.2 	 332
7699.3 	 322
7699.4 	 313
7699.5 	 304
7699.6 	 296
7699.7 	 287
7699.8 	 278
7699.9 	 270
7700.0 	 261
7700.1 	 256
7700.2 	 264
7700.3 	 272
7700.4 	 280
7700.5 	 288
7700.6 	 295
7700.7 	 303
7700.8 	 310
7700.9 	 318
7701.0 	 325
7701.1 	 335
7701.2 	 351
7701.3 	 376
7701.4 	 420
7701.5 	 446
7701.6 	 472
7701.7 	 497
7701.8 	 521
7701.9 	 545
7702.0 	 569
7702.1 	 593
7702.2 	 618
7702.3 	 642
7702.4 	 665
7702.5 	 687
7702.6 	 710
7702.7 	 732
7702.8 	 755
7702.9 	 778
7703.0 	 800
7703.1 	 820
7703.2 	 831
7703.3 	 842
7703.4 	 852
7703.5 	 847
7703.6 	 843
7703.7 	 838
7703.8 	 834
7703.9 	 830
7704.0 	 825
7704.1 	 820
7704.2 	 812
7704.3 	 803
7704.4 	 795
7704.5 	 785
7704.6 	 770
7704.7 	 755
7704.8 	 740
7704.9 	 725
7705.0 	 710
7705.1 	 695
7705.2 	 680
7705.3 	 666
7705.4 	 652
7705.5 	 639
7705.6 	 626
7705.7 	 618
7705.8 	 609
7705.9 	 601
7706.0 	 592
7706.1 	 584
7706.2 	 578
7706.3 	 573
7706.4 	 567
7706.5 	 562
7706.6 	 555
7706.7 	 550
7706.8 	 551
7706.9 	 551
7707.0 	 551
7707.1 	 550
7707.2 	 549
7707.3 	 548
7707.4 	 547
7707.5 	 545
7707.6 	 544
7707.7 	 521
7707.8 	 518
7707.9 	 512
7708.0 	 505
7708.1 	 498
7708.2 	 489
7708.3 	 480
7708.4 	 471
7708.5 	 462
7708.6 	 453
7708.7 	 444
7708.8 	 435
7708.9 	 385
7709.0 	 370
7709.1 	 354
7709.2 	 340
7709.3 	 325
7709.4 	 310
7709.5 	 322
7709.6 	 305
7709.7 	 288
7709.8 	 271
7709.9 	 254
7710.0 	 237
7710.1 	 221
7710.2 	 209
7710.3 	 197
7710.4 	 185
7710.5 	 173
7710.6 	 160
7710.7 	 137
7710.8 	 126
7710.9 	 114
7711.0 	 102
7711.1 	 92
7711.2 	 92
7711.3 	 91
7711.4 	 91
7711.5 	 91
7711.6 	 90
7711.7 	 90
7711.8 	 90
7711.9 	 97
7712.0 	 96
7712.1 	 96
7712.2 	 96
7712.3 	 103
7712.4 	 109
7712.5 	 115
7712.6 	 122
7712.7 	 128
7712.8 	 135
7712.9 	 142
7713.0 	 148
7713.1 	 155
7713.2 	 160
7713.3 	 165
7713.4 	 168
7713.5 	 172
7713.6 	 175
7713.7 	 178
7713.8 	 181
7713.9 	 184
7714.0 	 187
7714.1 	 140
7714.2 	 143
7714.3 	 146
7714.4 	 6
7714.5 	 6
7714.6 	 48
7714.7 	 46
7714.8 	 44
7714.9 	 43
7715.0 	 167
7715.1 	 163
7715.2 	 159
7715.3 	 156
7715.4 	 152
7715.5 	 144
7715.6 	 140
7715.7 	 136
7715.8 	 132
7715.9 	 129
7716.0 	 125
7716.1 	 121
7716.2 	 118
7716.3 	 116
7716.4 	 113
7716.5 	 111
7716.6 	 109
7716.7 	 114
7716.8 	 115
7716.9 	 116
7717.0 	 116
7717.1 	 117
7717.2 	 118
7717.3 	 118
7717.4 	 120
7717.5 	 121
7717.6 	 122
7717.7 	 124
7717.8 	 127
7717.9 	 130
7718.0 	 134
7718.1 	 136
7718.2 	 137
7718.3 	 138
7718.4 	 140
7718.5 	 140
7718.6 	 141
7718.7 	 142
7718.8 	 143
7718.9 	 141
7719.0 	 140
7719.1 	 138
7719.2 	 137
7719.3 	 136
7719.4 	 134
7719.5 	 133
7719.6 	 132
7719.7 	 131
7719.8 	 128
7719.9 	 125
7720.0 	 120
7720.1 	 114
7720.2 	 111
7720.3 	 107
7720.4 	 103
7720.5 	 99
7720.6 	 90
7720.7 	 86
7720.8 	 82
7720.9 	 78
7721.0 	 74
7721.1 	 70
7721.2 	 65
7721.3 	 61
7721.4 	 57
7721.5 	 53
7721.6 	 56
7721.7 	 52
7721.8 	 48
7721.9 	 45
7722.0 	 40
7722.1 	 35
7722.2 	 35
7722.3 	 35
7722.4 	 35
7722.5 	 35
7722.6 	 35
7722.7 	 34
7722.8 	 34
7722.9 	 34
7723.0 	 34
7723.1 	 34
7723.2 	 34
7723.3 	 36
7723.4 	 38
7723.5 	 40
7723.6 	 41
7723.7 	 43
7723.8 	 45
7723.9 	 47
7724.0 	 49
7724.1 	 51
7724.2 	 54
7724.3 	 56
7724.4 	 57
7724.5 	 57
7724.6 	 54
7724.7 	 54
7724.8 	 55
7725.3 	 0
7725.4 	 60
7725.5 	 57
7725.6 	 55
7725.7 	 52
7725.8 	 50
7725.9 	 47
7726.0 	 44
7726.1 	 42
7726.2 	 39
7726.3 	 37
7726.4 	 34
7726.5 	 32
7726.6 	 29
7726.7 	 27
7726.8 	 24
7726.9 	 22
7727.0 	 19
7727.1 	 17
7727.2 	 14
7727.3 	 12
7727.4 	 10
7727.5 	 7
7727.6 	 7
7727.7 	 8
7727.8 	 8
7727.9 	 8
7728.0 	 8
7728.1 	 6
7728.2 	 0
7729.3 	 7
7729.4 	 8
7729.5 	 8
7729.6 	 8
7729.7 	 8
7729.8 	 8
7729.9 	 8
7730.0 	 9
7730.1 	 9
7730.2 	 10
7730.3 	 10
7730.4 	 11
7730.5 	 11
7730.6 	 12
7730.7 	 12
7730.8 	 13
7730.9 	 13
7731.0 	 13
7731.1 	 13
7731.2 	 13
7731.3 	 13
7731.4 	 14
7731.5 	 14
7731.6 	 17
7731.7 	 18
7731.8 	 18
7731.9 	 18
7732.0 	 18
7732.1 	 20
7732.2 	 22
7732.3 	 24
7732.4 	 27
7732.5 	 29
7732.6 	 31
7732.7 	 33
7732.8 	 36
7732.9 	 38
7733.0 	 40
7733.1 	 43
7733.2 	 51
7733.3 	 59
7733.4 	 66
7733.5 	 74
7733.6 	 82
7733.7 	 90
7733.8 	 118
7733.9 	 126
7734.0 	 134
7734.1 	 146
7734.2 	 154
7734.3 	 165
7734.4 	 175
7734.5 	 185
7734.6 	 195
7734.7 	 205
7734.8 	 214
7734.9 	 224
7735.0 	 233
7735.1 	 243
7735.2 	 252
7735.3 	 260
7735.4 	 264
7735.5 	 268
7735.6 	 256
7735.7 	 260
7735.8 	 265
7735.9 	 269
7736.0 	 274
7736.1 	 278
7736.2 	 282
7736.3 	 287
7736.4 	 290
7736.5 	 285
7736.6 	 278
7736.7 	 271
7736.8 	 265
7736.9 	 258
7737.0 	 251
7737.1 	 245
7737.2 	 238
7737.3 	 230
7737.4 	 224
7737.5 	 216
7737.6 	 209
7737.7 	 200
7737.8 	 191
7737.9 	 181
7738.0 	 172
7738.1 	 162
7738.2 	 151
7738.3 	 141
7738.4 	 130
7738.5 	 120
7738.6 	 110
7738.7 	 104
7738.8 	 99
7738.9 	 93
7739.0 	 88
7739.1 	 83
7739.2 	 79
7739.3 	 75
7739.4 	 71
7739.5 	 67
7739.6 	 52
7739.7 	 48
7739.8 	 48
7739.9 	 49
7740.0 	 49
7740.1 	 46
7740.2 	 48
7740.3 	 49
7740.4 	 50
7740.5 	 52
7740.6 	 53
7740.7 	 55
7740.8 	 56
7740.9 	 56
7741.0 	 56
7741.1 	 55
7741.2 	 55
7741.3 	 55
7741.4 	 55
7741.5 	 55
7741.6 	 63
7741.7 	 63
7741.8 	 63
7741.9 	 62
7742.0 	 59
7742.1 	 57
7742.2 	 55
7742.3 	 53
7742.4 	 51
7742.5 	 49
7742.6 	 47
7742.7 	 44
7742.8 	 42
7742.9 	 40
7743.0 	 38
7743.1 	 36
7743.2 	 34
7743.3 	 32
7743.4 	 29
7743.5 	 27
7743.6 	 24
7743.7 	 22
7743.8 	 19
7743.9 	 17
7744.0 	 14
7744.2 	 0
9609.6 	 0
9609.8 	 7
9609.9 	 8
9610.0 	 8
9610.1 	 8
9610.2 	 8
9610.3 	 9
9610.4 	 9
9610.5 	 10
9610.6 	 10
9610.7 	 10
9610.8 	 10
9610.9 	 11
9611.0 	 11
9611.1 	 11
9611.2 	 10
9611.3 	 10
9611.4 	 10
9611.5 	 10
9611.6 	 9
9611.7 	 9
9611.8 	 8
9611.9 	 8
9612.0 	 8
9612.1 	 8
9612.2 	 7
9612.3 	 7
9612.4 	 7
9612.5 	 7
9612.6 	 7
9612.7 	 7
9612.8 	 7
9612.9 	 7
9615.6 	 5
9615.7 	 5
9615.8 	 5
9615.9 	 5
9616.0 	 5
9616.1 	 5
9616.2 	 5
9616.3 	 5
9616.4 	 6
9616.5 	 6
9616.6 	 6
9616.7 	 6
9616.8 	 6
9616.9 	 7
9617.0 	 7
9617.1 	 7
9617.2 	 7
9617.3 	 8
9617.4 	 8
9617.5 	 8
9617.6 	 8
9617.7 	 8
9617.8 	 7
9617.9 	 7
9618.0 	 7
9618.1 	 7
9618.2 	 6
9618.3 	 6
9618.4 	 6
9618.5 	 6
9618.6 	 6
9618.7 	 5
9618.9 	 0
9700.0 	 1
##ESI mass spectrum
##Adduct mass = -1.0079
628.2 	 15
628.3 	 21
638.7 	 19
638.8 	 59
638.9 	 130
639.0 	 146
639.1 	 573
639.2 	 1426
639.3 	 2233
639.4 	 2083
639.5 	 1501
639.6 	 1042
639.7 	 881
639.8 	 652
639.9 	 362
640.0 	 178
640.1 	 132
640.2 	 166
640.3 	 144
640.4 	 81
640.5 	 27
640.6 	 15
640.7 	 35
640.8 	 48
640.9 	 40
641.0 	 28
641.1 	 34
641.2 	 54
641.3 	 63
641.4 	 40
641.5 	 13
641.7 	 6
641.8 	 7
641.9 	 5
642.1 	 4
642.2 	 12
642.3 	 18
642.4 	 11
642.5 	 2
643.5 	 4
643.6 	 19
643.7 	 36
643.8 	 38
643.9 	 19
644.0 	 3
652.5 	 4
652.6 	 7
652.7 	 6
652.8 	 4
667.6 	 24
667.7 	 48
667.8 	 55
667.9 	 29
668.0 	 5
668.7 	 6
668.8 	 9
668.9 	 6
669.2 	 4
669.3 	 7
669.4 	 4
669.6 	 4
669.7 	 31
669.8 	 66
669.9 	 64
670.0 	 34
670.1 	 22
670.2 	 40
670.3 	 48
670.4 	 26
670.5 	 4
671.1 	 10
671.2 	 37
671.3 	 51
671.4 	 29
671.5 	 5
671.8 	 4
684.9 	 10
685.0 	 28
685.1 	 101
685.2 	 196
685.3 	 248
685.4 	 181
685.5 	 115
685.6 	 96
685.7 	 102
685.8 	 66
685.9 	 23
686.2 	 6
686.3 	 10
686.4 	 6
686.6 	 5
686.7 	 36
686.8 	 76
686.9 	 81
687.0 	 61
687.1 	 58
687.2 	 81
687.3 	 94
687.4 	 73
687.5 	 46
687.6 	 21
687.7 	 8
697.1 	 158
697.2 	 2261
697.3 	 6846
697.4 	 11513
697.5 	 13429
697.6 	 12044
697.7 	 8992
697.8 	 5747
697.9 	 2712
698.0 	 1018
698.1 	 562
698.2 	 804
698.3 	 735
698.4 	 508
698.5 	 301
698.6 	 239
698.7 	 297
698.8 	 314
698.9 	 257
699.0 	 186
699.1 	 217
699.2 	 356
699.3 	 484
699.4 	 441
699.5 	 324
699.6 	 264
699.7 	 293
699.8 	 280
699.9 	 174
700.0 	 68
700.1 	 51
700.2 	 108
700.3 	 143
700.4 	 112
700.5 	 76
700.6 	 78
700.7 	 103
700.8 	 102
700.9 	 64
701.0 	 26
701.1 	 23
701.2 	 51
701.3 	 60
701.4 	 32
701.5 	 5
701.7 	 8
701.8 	 13
701.9 	 14
702.0 	 30
702.1 	 105
702.2 	 197
702.3 	 229
702.4 	 153
702.5 	 68
702.6 	 40
702.7 	 56
702.8 	 54
702.9 	 27
703.0 	 4
704.2 	 6
704.3 	 9
704.4 	 6
712.2 	 14
712.3 	 22
712.4 	 14
734.1 	 7
734.2 	 58
734.3 	 129
734.4 	 143
734.5 	 100
734.6 	 53
734.7 	 43
734.8 	 37
734.9 	 20
735.0 	 4
735.6 	 2
735.7 	 10
735.8 	 16
735.9 	 10
736.0 	 2
736.2 	 6
736.3 	 9
736.4 	 6
736.6 	 6
736.7 	 28
736.8 	 43
736.9 	 27
737.0 	 6
738.2 	 7
738.3 	 11
738.4 	 7
738.7 	 5
738.8 	 8
738.9 	 5
753.2 	 3
753.3 	 31
753.4 	 75
753.5 	 93
753.6 	 186
753.7 	 345
753.8 	 458
753.9 	 373
754.0 	 255
754.1 	 196
754.2 	 181
754.3 	 127
754.4 	 57
754.5 	 10
755.1 	 2
755.2 	 8
755.3 	 13
755.4 	 8
755.6 	 3
755.7 	 26
755.8 	 51
755.9 	 47
756.0 	 25
756.1 	 9
756.2 	 7
756.3 	 6
756.4 	 3
766.7 	 15
766.8 	 135
766.9 	 508
767.0 	 922
767.1 	 3088
767.2 	 6332
767.3 	 8317
767.4 	 6089
767.5 	 3009
767.6 	 1260
767.7 	 1118
767.8 	 787
767.9 	 464
768.0 	 222
768.1 	 120
768.2 	 137
768.3 	 127
768.4 	 92
768.5 	 55
768.6 	 58
768.7 	 91
768.8 	 107
768.9 	 78
769.0 	 40
769.1 	 76
769.2 	 189
769.3 	 309
769.4 	 319
769.5 	 264
769.6 	 209
769.7 	 188
769.8 	 155
769.9 	 96
770.0 	 45
770.1 	 24
770.2 	 36
770.3 	 50
770.4 	 50
770.5 	 35
770.6 	 29
770.7 	 36
770.8 	 40
770.9 	 21
771.0 	 4
771.2 	 9
771.3 	 11
771.4 	 5
771.8 	 2
772.2 	 4
772.3 	 12
772.4 	 22
772.5 	 26
772.6 	 27
772.7 	 28
772.8 	 25
772.9 	 12
773.2 	 8
773.3 	 12
773.4 	 8
774.8 	 2
789.1 	 2
789.2 	 11
789.3 	 18
789.4 	 11
789.5 	 2
791.1 	 2
791.2 	 10
791.3 	 16
791.4 	 10
791.5 	 2
805.2 	 3
805.3 	 5
805.4 	 3
811.2 	 2
811.3 	 4
811.4 	 2
812.7 	 3
812.8 	 5
812.9 	 3
818.7 	 5
818.8 	 11
818.9 	 11
819.0 	 5
819.2 	 2
819.3 	 3
819.4 	 2
819.9 	 2
820.1 	 2
820.2 	 5
820.3 	 4
832.2 	 2
832.3 	 3
832.4 	 2
832.5 	 2
832.6 	 3
832.7 	 2
834.8 	 2
834.9 	 2
837.3 	 4
837.4 	 14
837.5 	 20
837.6 	 22
837.7 	 21
837.8 	 21
837.9 	 12
846.8 	 15
852.2 	 61
852.3 	 160
852.4 	 262
852.5 	 323
852.6 	 387
852.7 	 438
852.8 	 427
852.9 	 279
853.0 	 151
853.1 	 95
853.2 	 95
853.3 	 64
853.4 	 31
853.7 	 15
853.8 	 15
854.7 	 19
854.8 	 25
854.9 	 22
855.0 	 18
855.1 	 22
855.2 	 31
855.3 	 34
855.4 	 22
858.3 	 20
858.4 	 21
858.5 	 16
958.8 	 18
958.9 	 41
959.0 	 61
959.1 	 136
959.2 	 245
959.3 	 314
959.4 	 239
959.5 	 142
959.6 	 95
959.7 	 95
959.8 	 68
959.9 	 35
960.0 	 18
960.1 	 15
961.7 	 16
961.8 	 20
961.9 	 19
962.0 	 17
1096.1 	 48
1096.2 	 128
1096.3 	 202
1096.4 	 194
1096.5 	 157
1096.6 	 144
1096.7 	 154
1096.8 	 142
1096.9 	 91
1097.0 	 47
1097.1 	 24
1097.2 	 21
1097.3 	 15
1099.2 	 20
1099.3 	 29
1099.4 	 27
1099.5 	 17
1099.8 	 23
1099.9 	 22
1278.9 	 16
1279.0 	 32
1279.1 	 65
1279.2 	 94
1279.3 	 102
1279.4 	 79
1279.5 	 60
1279.6 	 56
1279.7 	 60
1279.8 	 55
1279.9 	 43
1280.0 	 28
1280.1 	 17
1282.8 	 17
1282.9 	 15
