##Deconvoluted mass spectrum
1000.0 	 1
6668.8 	 0
6669.3 	 5
6669.4 	 6
6669.5 	 7
6669.6 	 8
6669.7 	 8
6669.8 	 9
6669.9 	 10
6670.0 	 11
6670.1 	 12
6670.2 	 13
6670.3 	 14
6670.4 	 14
6670.5 	 15
6670.6 	 15
6670.7 	 15
6670.8 	 15
6670.9 	 15
6671.0 	 15
6671.1 	 15
6671.2 	 15
6671.3 	 15
6671.4 	 15
6671.5 	 14
6671.6 	 14
6671.7 	 14
6671.8 	 14
6671.9 	 13
6672.0 	 13
6672.1 	 14
6672.2 	 15
6672.3 	 16
6672.4 	 17
6672.5 	 18
6672.6 	 20
6672.7 	 21
6672.8 	 22
6672.9 	 24
6673.0 	 27
6673.1 	 30
6673.2 	 33
6673.3 	 36
6673.4 	 39
6673.5 	 42
6673.6 	 45
6673.7 	 48
6673.8 	 50
6673.9 	 51
6674.0 	 53
6674.1 	 55
6674.2 	 57
6674.3 	 59
6674.4 	 61
6674.5 	 61
6674.6 	 58
6674.7 	 55
6674.8 	 52
6674.9 	 49
6675.0 	 46
6675.1 	 43
6675.2 	 40
6675.3 	 37
6675.4 	 33
6675.5 	 29
6675.6 	 26
6675.7 	 22
6675.8 	 18
6675.9 	 15
6676.0 	 11
6676.2 	 0
7487.0 	 0
7487.1 	 37
7487.2 	 51
7487.3 	 56
7487.4 	 61
7487.5 	 66
7487.6 	 71
7487.7 	 76
7487.8 	 112
7487.9 	 119
7488.0 	 127
7488.1 	 134
7488.2 	 139
7488.3 	 144
7488.4 	 149
7488.5 	 154
7488.6 	 160
7488.7 	 165
7488.8 	 170
7488.9 	 175
7489.0 	 178
7489.1 	 182
7489.2 	 184
7489.3 	 186
7489.4 	 188
7489.5 	 190
7489.6 	 193
7489.7 	 214
7489.8 	 218
7489.9 	 221
7490.0 	 225
7490.1 	 229
7490.2 	 234
7490.3 	 240
7490.4 	 246
7490.5 	 251
7490.6 	 256
7490.7 	 260
7490.8 	 264
7490.9 	 267
7491.0 	 270
7491.1 	 273
7491.2 	 279
7491.3 	 285
7491.4 	 291
7491.5 	 297
7491.6 	 303
7491.7 	 308
7491.8 	 314
7491.9 	 319
7492.0 	 324
7492.1 	 329
7492.2 	 332
7492.3 	 336
7492.4 	 340
7492.5 	 344
7492.6 	 349
7492.7 	 353
7492.8 	 358
7492.9 	 362
7493.0 	 366
7493.1 	 369
7493.2 	 368
7493.3 	 366
7493.4 	 364
7493.5 	 361
7493.6 	 357
7493.7 	 334
7493.8 	 331
7493.9 	 328
7494.0 	 325
7494.1 	 321
7494.2 	 317
7494.3 	 312
7494.4 	 307
7494.5 	 296
7494.6 	 286
7494.7 	 275
7494.8 	 265
7494.9 	 255
7495.0 	 244
7495.1 	 234
7495.2 	 224
7495.3 	 214
7495.4 	 203
7495.5 	 193
7495.6 	 182
7495.7 	 170
7495.8 	 159
7495.9 	 148
7496.0 	 137
7496.1 	 126
7496.2 	 117
7496.3 	 109
7496.4 	 101
7496.5 	 93
7496.6 	 85
7496.7 	 79
7496.8 	 73
7496.9 	 67
7497.0 	 61
7497.1 	 55
7497.2 	 52
7497.3 	 48
7497.4 	 44
7497.5 	 41
7497.6 	 35
7497.7 	 32
7497.8 	 30
7497.9 	 28
7498.0 	 26
7498.1 	 25
7498.2 	 24
7498.3 	 24
7498.4 	 23
7498.5 	 23
7498.6 	 22
7498.7 	 22
7498.8 	 21
7498.9 	 20
7499.0 	 19
7499.1 	 19
7499.2 	 19
7499.3 	 18
7499.4 	 18
7499.5 	 18
7499.6 	 16
7499.7 	 16
7499.8 	 16
7500.0 	 0
7501.6 	 2
7501.7 	 2
7501.8 	 2
7501.9 	 2
7502.0 	 2
7502.1 	 4
7502.2 	 4
7502.3 	 4
7502.4 	 4
7502.5 	 2
7502.6 	 2
7502.7 	 3
7502.8 	 3
7502.9 	 3
7503.0 	 3
7503.2 	 0
7617.0 	 0
7617.1 	 17
7617.2 	 19
7617.3 	 22
7617.4 	 25
7617.5 	 27
7617.6 	 30
7617.7 	 33
7617.8 	 36
7617.9 	 38
7618.0 	 41
7618.1 	 44
7618.2 	 49
7618.3 	 55
7618.4 	 60
7618.5 	 65
7618.6 	 71
7618.7 	 76
7618.8 	 81
7618.9 	 86
7619.0 	 92
7619.1 	 100
7619.2 	 118
7619.3 	 186
7619.4 	 227
7619.5 	 269
7619.6 	 121
7620.2 	 0
7620.3 	 46
7620.4 	 538
7620.5 	 1048
7620.6 	 1618
7620.7 	 1836
7620.8 	 2054
7620.9 	 2331
7621.0 	 2671
7621.1 	 3034
7621.2 	 3489
7621.3 	 4011
7621.4 	 4634
7621.5 	 5258
7621.6 	 5881
7621.7 	 6514
7621.8 	 7167
7621.9 	 7818
7622.0 	 8468
7622.1 	 9128
7622.2 	 9845
7622.3 	 10601
7622.4 	 11356
7622.5 	 12060
7622.6 	 12681
7622.7 	 13303
7622.8 	 13924
7622.9 	 14545
7623.0 	 15166
7623.1 	 15756
7623.2 	 16238
7623.3 	 16681
7623.4 	 17060
7623.5 	 17439
7623.6 	 17818
7623.7 	 18198
7623.8 	 18580
7623.9 	 18965
7624.0 	 19269
7624.1 	 19346
7624.2 	 19331
7624.3 	 19318
7624.4 	 19304
7624.5 	 19289
7624.6 	 19272
7624.7 	 19254
7624.8 	 19237
7624.9 	 19131
7625.0 	 18801
7625.1 	 18464
7625.2 	 18094
7625.3 	 17719
7625.4 	 17343
7625.5 	 16966
7625.6 	 16589
7625.7 	 16205
7625.8 	 15729
7625.9 	 15056
7626.0 	 14383
7626.1 	 13710
7626.2 	 13039
7626.3 	 12369
7626.4 	 11697
7626.5 	 11008
7626.6 	 10305
7626.7 	 9656
7626.8 	 9135
7626.9 	 8614
7627.0 	 8093
7627.1 	 7565
7627.2 	 7014
7627.3 	 6475
7627.4 	 5956
7627.5 	 5436
7627.6 	 4988
7627.7 	 4720
7627.8 	 4453
7627.9 	 4172
7628.0 	 3904
7628.1 	 3644
7628.2 	 3383
7628.3 	 3122
7628.4 	 2862
7628.5 	 2644
7628.6 	 2532
7628.7 	 2392
7628.8 	 2283
7628.9 	 2184
7629.0 	 2103
7629.1 	 2054
7629.2 	 2008
7629.3 	 1963
7629.4 	 1902
7629.5 	 1806
7629.6 	 1708
7629.7 	 1609
7629.8 	 1506
7629.9 	 1403
7630.0 	 1300
7630.1 	 1194
7630.2 	 1143
7630.3 	 1090
7630.4 	 1036
7630.5 	 981
7630.6 	 925
7630.7 	 869
7630.8 	 813
7630.9 	 757
7631.0 	 700
7631.1 	 650
7631.2 	 629
7631.3 	 543
7631.4 	 531
7631.5 	 519
7631.6 	 507
7631.7 	 545
7631.8 	 528
7631.9 	 496
7632.0 	 481
7632.1 	 468
7632.2 	 458
7632.3 	 448
7632.4 	 438
7632.5 	 428
7632.6 	 418
7632.7 	 408
7632.8 	 398
7632.9 	 389
7633.0 	 383
7633.1 	 383
7633.2 	 380
7633.3 	 377
7633.4 	 374
7633.5 	 371
7633.6 	 368
7633.7 	 364
7633.8 	 360
7633.9 	 209
7634.0 	 201
7634.1 	 26
7634.2 	 26
7634.3 	 25
7634.4 	 173
7634.5 	 173
7634.6 	 302
7634.7 	 294
7634.8 	 284
7634.9 	 271
7635.0 	 258
7635.1 	 246
7635.2 	 239
7635.3 	 106
7635.4 	 105
7635.5 	 103
7635.6 	 102
7635.7 	 193
7635.8 	 187
7635.9 	 181
7636.0 	 175
7636.1 	 171
7636.2 	 170
7636.3 	 168
7636.4 	 167
7636.5 	 166
7636.6 	 167
7636.7 	 172
7636.8 	 176
7636.9 	 181
7637.0 	 186
7637.1 	 191
7637.2 	 194
7637.3 	 213
7637.4 	 216
7637.5 	 220
7637.6 	 111
7637.7 	 117
7637.8 	 123
7637.9 	 130
7638.0 	 137
7638.1 	 242
7638.2 	 245
7638.3 	 247
7638.4 	 248
7638.5 	 273
7638.6 	 271
7638.7 	 269
7638.8 	 267
7638.9 	 265
7639.0 	 263
7639.1 	 261
7639.2 	 259
7639.3 	 255
7639.4 	 247
7639.5 	 239
7639.6 	 232
7639.7 	 204
7639.8 	 196
7639.9 	 188
7640.0 	 180
7640.1 	 172
7640.2 	 168
7640.3 	 162
7640.4 	 157
7640.5 	 152
7640.6 	 146
7640.7 	 141
7640.8 	 136
7640.9 	 130
7641.0 	 125
7641.1 	 123
7641.2 	 129
7641.3 	 158
7641.4 	 164
7641.5 	 171
7641.6 	 177
7641.7 	 185
7641.8 	 195
7641.9 	 206
7642.0 	 219
7642.1 	 238
7642.2 	 257
7642.3 	 275
7642.4 	 294
7642.5 	 312
7642.6 	 328
7642.7 	 345
7642.8 	 361
7642.9 	 378
7643.0 	 394
7643.1 	 410
7643.2 	 423
7643.3 	 436
7643.4 	 446
7643.5 	 457
7643.6 	 468
7643.7 	 479
7643.8 	 486
7643.9 	 485
7644.0 	 483
7644.1 	 496
7644.2 	 496
7644.3 	 497
7644.4 	 497
7644.5 	 498
7644.6 	 499
7644.7 	 498
7644.8 	 492
7644.9 	 487
7645.0 	 483
7645.1 	 480
7645.2 	 479
7645.3 	 478
7645.4 	 478
7645.5 	 477
7645.6 	 476
7645.7 	 478
7645.8 	 478
7645.9 	 479
7646.0 	 479
7646.1 	 480
7646.2 	 482
7646.3 	 484
7646.4 	 486
7646.5 	 487
7646.6 	 489
7646.7 	 490
7646.8 	 492
7646.9 	 477
7647.0 	 480
7647.1 	 482
7647.2 	 481
7647.3 	 480
7647.4 	 478
7647.5 	 473
7647.6 	 467
7647.7 	 462
7647.8 	 456
7647.9 	 451
7648.0 	 445
7648.1 	 440
7648.2 	 431
7648.3 	 419
7648.4 	 400
7648.5 	 382
7648.6 	 363
7648.7 	 345
7648.8 	 326
7648.9 	 308
7649.0 	 292
7649.1 	 276
7649.2 	 261
7649.3 	 246
7649.4 	 231
7649.5 	 216
7649.6 	 202
7649.7 	 187
7649.8 	 171
7649.9 	 156
7650.0 	 140
7650.1 	 128
7650.2 	 123
7650.3 	 119
7650.4 	 114
7650.5 	 110
7650.6 	 104
7650.7 	 98
7650.8 	 93
7650.9 	 87
7651.0 	 83
7651.1 	 83
7651.2 	 86
7651.3 	 76
7651.4 	 79
7651.5 	 83
7651.6 	 87
7651.7 	 90
7651.8 	 94
7651.9 	 97
7652.0 	 98
7652.1 	 100
7652.2 	 100
7652.3 	 100
7652.4 	 100
7652.5 	 101
7652.6 	 101
7652.7 	 101
7652.8 	 101
7652.9 	 100
7653.0 	 99
7653.1 	 98
7653.2 	 94
7653.3 	 91
7653.4 	 88
7653.5 	 84
7653.6 	 81
7653.7 	 58
7653.8 	 56
7653.9 	 55
7654.0 	 53
7654.1 	 52
7654.2 	 49
7654.3 	 47
7654.4 	 45
7654.5 	 43
7654.6 	 40
7654.7 	 38
7654.8 	 36
7654.9 	 34
7655.0 	 32
7655.1 	 30
7655.2 	 30
7655.3 	 30
7655.4 	 31
7655.5 	 31
7655.6 	 31
7655.7 	 31
7655.8 	 31
7655.9 	 32
7656.0 	 32
7656.1 	 32
7656.2 	 35
7656.3 	 38
7656.4 	 40
7656.5 	 43
7656.6 	 46
7656.7 	 48
7656.8 	 51
7656.9 	 53
7657.0 	 56
7657.1 	 58
7657.2 	 60
7657.3 	 62
7657.4 	 64
7657.5 	 66
7657.6 	 68
7657.7 	 70
7657.8 	 72
7657.9 	 74
7658.0 	 76
7658.2 	 0
9600.0 	 1
##ESI mass spectrum
##Adduct mass = -1.0079
679.7 	 31
679.8 	 60
679.9 	 70
680.0 	 67
680.1 	 77
680.2 	 99
680.3 	 106
680.4 	 71
680.5 	 32
680.6 	 14
680.7 	 17
680.8 	 16
684.8 	 15
691.8 	 15
691.9 	 34
692.0 	 47
692.1 	 90
692.2 	 157
692.3 	 196
692.4 	 144
692.5 	 77
692.6 	 39
692.7 	 32
692.8 	 16
731.2 	 13
731.3 	 16
732.7 	 14
732.8 	 20
747.7 	 36
747.8 	 76
747.9 	 89
748.0 	 86
748.1 	 111
748.2 	 155
748.3 	 176
748.4 	 142
748.5 	 95
748.6 	 55
748.7 	 30
748.8 	 10
748.9 	 2
749.2 	 2
749.3 	 3
749.4 	 2
749.7 	 6
749.8 	 14
749.9 	 18
750.0 	 19
750.1 	 14
750.2 	 8
750.3 	 3
760.7 	 16
760.8 	 43
760.9 	 96
761.1 	 457
761.2 	 1798
761.3 	 3650
761.4 	 4468
761.5 	 4304
761.6 	 3766
761.7 	 3242
761.8 	 2417
761.9 	 1267
762.0 	 491
762.1 	 220
762.2 	 284
762.3 	 245
762.4 	 169
762.5 	 96
762.6 	 79
762.7 	 110
762.8 	 122
762.9 	 90
763.0 	 56
763.1 	 60
763.2 	 97
763.3 	 125
763.4 	 115
763.5 	 97
763.6 	 114
763.7 	 154
763.8 	 159
763.9 	 101
764.0 	 47
764.1 	 37
764.2 	 59
764.3 	 68
764.4 	 52
764.5 	 30
764.6 	 32
764.7 	 58
764.8 	 77
764.9 	 55
765.0 	 22
765.1 	 7
765.2 	 16
765.3 	 21
765.4 	 13
765.5 	 2
765.7 	 8
765.8 	 12
765.9 	 8
766.2 	 6
766.3 	 12
766.4 	 15
766.5 	 20
766.6 	 34
766.7 	 51
766.8 	 52
766.9 	 27
767.0 	 5
767.2 	 5
767.3 	 8
767.4 	 5
773.1 	 3
773.2 	 12
773.3 	 18
773.4 	 12
773.5 	 3
774.3 	 2
775.6 	 3
775.7 	 13
775.8 	 20
775.9 	 13
776.0 	 3
778.2 	 6
778.3 	 9
778.4 	 6
809.2 	 5
809.3 	 8
809.4 	 5
809.7 	 9
809.8 	 15
809.9 	 9
810.0 	 2
811.1 	 3
811.2 	 13
811.3 	 20
811.4 	 13
811.5 	 3
812.1 	 8
812.2 	 33
812.3 	 57
812.4 	 56
812.5 	 47
812.6 	 32
812.7 	 15
812.8 	 2
813.8 	 5
813.9 	 8
814.0 	 7
814.1 	 6
814.2 	 12
814.3 	 16
814.4 	 10
814.5 	 2
830.9 	 10
831.0 	 18
831.1 	 29
831.2 	 43
831.3 	 65
831.4 	 73
831.5 	 75
831.6 	 79
831.7 	 75
831.8 	 52
831.9 	 20
832.0 	 2
832.6 	 2
832.7 	 8
832.8 	 15
832.9 	 15
833.0 	 13
833.1 	 23
833.2 	 47
833.3 	 62
833.4 	 38
833.5 	 9
845.7 	 434
845.8 	 1932
845.9 	 4920
846.0 	 8407
846.1 	 11490
846.2 	 12067
846.3 	 9638
846.4 	 4714
846.5 	 1404
846.6 	 368
846.7 	 668
846.8 	 501
846.9 	 306
847.0 	 154
847.1 	 112
847.2 	 146
847.3 	 149
847.4 	 109
847.5 	 71
847.6 	 87
847.7 	 136
847.8 	 155
847.9 	 113
848.0 	 61
848.1 	 85
848.2 	 193
848.3 	 304
848.4 	 305
848.5 	 251
848.6 	 234
848.7 	 262
848.8 	 249
848.9 	 150
849.0 	 60
849.1 	 29
849.2 	 42
849.3 	 36
849.4 	 20
849.5 	 17
849.6 	 43
849.7 	 79
849.8 	 91
849.9 	 60
850.0 	 26
850.1 	 20
850.2 	 38
850.3 	 45
850.4 	 25
851.7 	 26
851.8 	 52
851.9 	 58
852.0 	 53
852.1 	 52
852.2 	 53
852.3 	 43
852.4 	 20
859.2 	 16
859.3 	 25
859.4 	 16
862.8 	 15
908.8 	 17
908.9 	 18
910.8 	 13
913.7 	 20
913.8 	 34
913.9 	 33
914.0 	 27
914.1 	 29
914.2 	 34
914.3 	 30
914.4 	 14
935.2 	 19
935.3 	 28
935.4 	 26
935.5 	 23
935.6 	 22
935.7 	 19
951.4 	 41
951.6 	 420
951.7 	 1575
951.8 	 3045
951.9 	 3474
952.0 	 3083
952.1 	 2508
952.2 	 2121
952.3 	 1579
952.4 	 832
952.5 	 322
952.6 	 133
952.7 	 162
952.8 	 121
952.9 	 70
953.0 	 33
953.1 	 21
953.2 	 27
953.3 	 25
953.4 	 14
953.7 	 17
953.8 	 26
953.9 	 19
954.2 	 23
954.3 	 54
954.4 	 67
954.5 	 63
954.6 	 73
954.7 	 96
954.8 	 102
954.9 	 67
955.0 	 31
955.1 	 17
955.2 	 22
955.3 	 22
955.4 	 13
956.3 	 16
958.7 	 20
958.8 	 21
1087.6 	 42
1087.7 	 109
1087.8 	 166
1087.9 	 151
1088.0 	 116
1088.1 	 118
1088.2 	 149
1088.3 	 151
1088.4 	 102
1088.5 	 57
1088.6 	 37
1088.7 	 37
1088.8 	 31
1088.9 	 21
1089.0 	 14
1091.0 	 13
1091.1 	 20
1091.2 	 26
1091.3 	 25
1091.4 	 17
1269.2 	 18
1269.3 	 36
1269.4 	 40
1269.5 	 33
1269.6 	 29
1269.7 	 33
1269.8 	 35
1269.9 	 28
1270.0 	 20
1270.1 	 16
1270.2 	 16
1270.3 	 13
