##Deconvoluted mass spectrum
1000.0 	 1
4081.1 	 0
4081.3 	 29
4081.4 	 34
4081.5 	 39
4081.6 	 44
4081.7 	 49
4081.8 	 54
4081.9 	 57
4082.0 	 59
4082.1 	 61
4082.2 	 63
4082.3 	 65
4082.4 	 67
4082.5 	 67
4082.6 	 66
4082.7 	 65
4082.8 	 64
4082.9 	 63
4083.0 	 62
4083.1 	 61
4083.2 	 60
4083.3 	 59
4083.4 	 59
4083.5 	 58
4083.6 	 57
4083.7 	 57
4083.8 	 58
4083.9 	 58
4084.0 	 59
4084.1 	 59
4084.2 	 60
4084.3 	 60
4084.4 	 59
4084.5 	 58
4084.6 	 58
4084.7 	 57
4084.8 	 56
4084.9 	 54
4085.0 	 50
4085.1 	 46
4085.2 	 41
4085.3 	 37
4085.4 	 33
4085.5 	 29
4085.6 	 25
4085.7 	 22
4085.8 	 18
4085.9 	 14
4086.0 	 11
4086.1 	 0
4894.1 	 0
4894.3 	 9
4894.4 	 12
4894.5 	 14
4894.6 	 16
4894.7 	 19
4894.8 	 21
4894.9 	 24
4895.0 	 26
4895.1 	 35
4895.2 	 98
4895.3 	 243
4895.4 	 345
4895.5 	 447
4895.6 	 549
4895.7 	 235
4895.8 	 263
4895.9 	 293
4896.0 	 326
4896.1 	 364
4896.2 	 408
4896.3 	 451
4896.4 	 494
4896.5 	 1560
4896.6 	 1708
4896.7 	 1896
4896.8 	 2086
4896.9 	 2399
4897.0 	 2923
4897.1 	 3445
4897.2 	 3967
4897.3 	 4500
4897.4 	 5050
4897.5 	 5599
4897.6 	 6148
4897.7 	 6688
4897.8 	 7212
4897.9 	 7727
4898.0 	 8209
4898.1 	 8661
4898.2 	 9113
4898.3 	 9564
4898.4 	 10016
4898.5 	 10274
4898.6 	 10200
4898.7 	 10051
4898.8 	 9810
4898.9 	 9568
4899.0 	 9327
4899.1 	 9085
4899.2 	 8844
4899.3 	 8518
4899.4 	 8036
4899.5 	 7537
4899.6 	 7039
4899.7 	 6545
4899.8 	 6053
4899.9 	 5562
4900.0 	 5070
4900.1 	 4638
4900.2 	 4295
4900.3 	 3951
4900.4 	 3606
4900.5 	 3261
4900.6 	 2917
4900.7 	 2573
4900.8 	 2258
4900.9 	 2056
4901.0 	 1990
4901.1 	 1922
4901.2 	 1849
4901.3 	 1782
4901.4 	 1715
4901.5 	 1644
4901.6 	 1569
4901.7 	 1497
4901.8 	 1432
4901.9 	 1367
4902.0 	 1302
4902.1 	 1238
4902.2 	 1175
4902.3 	 1113
4902.4 	 1050
4902.5 	 989
4902.6 	 933
4902.7 	 878
4902.8 	 825
4902.9 	 773
4903.0 	 724
4903.1 	 670
4903.2 	 622
4903.3 	 576
4903.4 	 537
4903.5 	 498
4903.6 	 462
4903.7 	 429
4903.8 	 397
4903.9 	 359
4904.0 	 327
4904.1 	 302
4904.2 	 289
4904.3 	 278
4904.4 	 269
4904.5 	 261
4904.6 	 253
4904.7 	 244
4904.8 	 236
4904.9 	 233
4905.0 	 238
4905.1 	 242
4905.2 	 245
4905.3 	 249
4905.4 	 252
4905.5 	 256
4905.6 	 260
4905.7 	 215
4905.8 	 214
4905.9 	 213
4906.0 	 212
4906.1 	 211
4906.2 	 210
4906.3 	 209
4906.4 	 208
4906.6 	 0
4912.6 	 0
4912.7 	 17
4912.8 	 16
4912.9 	 16
4913.0 	 15
4913.1 	 14
4913.2 	 14
4913.3 	 13
4913.4 	 13
4913.5 	 12
4913.6 	 11
4913.7 	 10
4913.8 	 9
4913.9 	 8
4914.0 	 7
4914.1 	 6
4914.2 	 6
4914.3 	 6
4914.4 	 6
4914.5 	 6
4914.6 	 6
4914.7 	 6
4914.8 	 6
4914.9 	 7
4915.0 	 8
4915.1 	 9
4915.2 	 10
4915.3 	 11
4915.4 	 12
4915.5 	 12
4915.6 	 13
4915.7 	 54
4915.8 	 52
4915.9 	 49
4916.0 	 47
4916.1 	 46
4916.2 	 47
4916.3 	 46
4916.4 	 46
4916.5 	 46
4916.6 	 46
4916.7 	 46
4916.8 	 46
4916.9 	 47
4917.0 	 49
4917.1 	 51
4917.2 	 54
4917.3 	 56
4917.4 	 58
4917.5 	 60
4917.6 	 64
4917.7 	 68
4917.8 	 71
4917.9 	 74
4918.0 	 77
4918.1 	 80
4918.2 	 83
4918.3 	 94
4918.4 	 99
4918.5 	 104
4918.6 	 107
4918.7 	 109
4918.8 	 112
4918.9 	 114
4919.0 	 115
4919.1 	 120
4919.2 	 121
4919.3 	 116
4919.4 	 116
4919.5 	 115
4919.6 	 114
4919.7 	 113
4919.8 	 109
4919.9 	 106
4920.0 	 103
4920.1 	 100
4920.2 	 99
4920.3 	 98
4920.4 	 97
4920.5 	 96
4920.6 	 95
4920.7 	 94
4920.8 	 99
4920.9 	 99
4921.0 	 100
4921.1 	 102
4921.2 	 104
4921.3 	 106
4921.4 	 107
4921.5 	 109
4921.6 	 103
4921.7 	 104
4921.8 	 104
4921.9 	 105
4922.0 	 105
4922.1 	 105
4922.2 	 105
4922.3 	 105
4922.4 	 105
4922.5 	 103
4922.6 	 99
4922.7 	 95
4922.8 	 83
4922.9 	 79
4923.0 	 75
4923.1 	 71
4923.2 	 59
4923.3 	 55
4923.4 	 51
4923.5 	 47
4923.6 	 42
4923.7 	 38
4923.8 	 34
4923.9 	 29
4924.0 	 31
4924.1 	 28
4924.2 	 26
4924.3 	 24
4924.4 	 23
4924.5 	 22
4924.6 	 20
4924.7 	 19
4924.8 	 18
4924.9 	 11
4925.0 	 12
4925.1 	 14
4925.2 	 16
4925.3 	 17
4925.4 	 19
4925.5 	 20
4925.6 	 22
4925.7 	 23
4925.8 	 24
4925.9 	 26
4926.0 	 27
4926.1 	 28
4926.2 	 29
4926.3 	 30
4926.4 	 31
4926.5 	 32
4926.6 	 31
4926.7 	 30
4926.8 	 30
4926.9 	 29
4927.0 	 28
4927.1 	 27
4927.2 	 26
4927.3 	 26
4927.4 	 24
4927.5 	 23
4927.6 	 22
4927.7 	 20
4927.8 	 19
4927.9 	 18
4928.0 	 17
4928.1 	 16
4928.2 	 16
4928.3 	 15
4928.4 	 15
4928.5 	 14
4928.6 	 14
4928.7 	 14
4928.8 	 13
4928.9 	 13
4929.0 	 14
4929.1 	 15
4929.2 	 16
4929.3 	 16
4929.4 	 17
4929.5 	 18
4929.6 	 18
4929.7 	 19
4929.8 	 19
4929.9 	 19
4930.0 	 19
4930.1 	 20
4930.2 	 20
4930.3 	 20
4930.4 	 20
4930.6 	 0
6900.0 	 1
##ESI mass spectrum
##Adduct mass = -1.0079
594.2 	 14
594.3 	 35
594.4 	 49
594.5 	 52
594.6 	 52
594.7 	 53
594.8 	 49
594.9 	 30
595.0 	 13
610.9 	 87
611.1 	 1296
611.2 	 4575
611.3 	 7667
611.4 	 6588
611.5 	 3698
611.6 	 1534
611.7 	 1106
611.8 	 762
611.9 	 469
612.0 	 253
612.1 	 179
612.2 	 215
612.3 	 207
612.4 	 142
612.5 	 80
612.6 	 67
612.7 	 93
612.8 	 102
612.9 	 77
613.0 	 54
613.1 	 60
613.2 	 83
613.3 	 83
613.4 	 54
613.5 	 30
613.6 	 35
613.7 	 60
613.8 	 75
613.9 	 67
614.0 	 54
614.1 	 57
614.2 	 76
614.3 	 84
614.4 	 57
614.5 	 22
614.6 	 10
614.7 	 23
614.8 	 32
614.9 	 26
615.0 	 16
615.1 	 13
615.2 	 19
615.3 	 20
615.4 	 10
615.7 	 10
615.8 	 10
617.8 	 5
625.2 	 14
625.3 	 21
625.4 	 13
679.2 	 26
679.3 	 56
679.4 	 68
679.5 	 61
679.6 	 57
679.7 	 60
679.8 	 56
679.9 	 31
680.0 	 9
698.3 	 48
698.4 	 194
698.5 	 380
698.6 	 1039
698.7 	 1935
698.8 	 2438
698.9 	 1776
699.0 	 904
699.1 	 415
699.2 	 369
699.3 	 265
699.4 	 156
699.5 	 77
699.6 	 46
699.7 	 53
699.8 	 47
699.9 	 34
700.0 	 20
700.1 	 13
700.2 	 15
700.3 	 17
700.4 	 13
700.5 	 6
700.6 	 5
700.7 	 12
700.8 	 17
700.9 	 13
701.0 	 6
701.1 	 6
701.2 	 12
701.3 	 16
701.4 	 11
701.5 	 5
701.6 	 14
701.7 	 32
701.8 	 41
701.9 	 30
702.0 	 19
702.1 	 13
702.2 	 12
702.3 	 8
705.8 	 6
714.8 	 6
714.9 	 5
764.8 	 5
795.0 	 8
795.1 	 8
795.2 	 5
806.8 	 6
806.9 	 5
814.7 	 8
814.8 	 22
814.9 	 39
815.0 	 55
815.1 	 117
815.2 	 208
815.3 	 270
815.4 	 232
815.5 	 166
815.6 	 123
815.7 	 116
815.8 	 100
815.9 	 66
816.0 	 34
816.1 	 16
816.2 	 12
816.3 	 6
818.7 	 6
818.8 	 13
818.9 	 13
819.0 	 12
819.1 	 13
819.2 	 15
819.3 	 14
819.4 	 9
819.7 	 6
819.8 	 7
834.8 	 5
834.9 	 7
835.0 	 10
835.1 	 11
835.2 	 12
835.3 	 9
873.5 	 5
873.6 	 6
978.0 	 5
978.1 	 15
978.2 	 32
978.3 	 58
978.4 	 76
978.5 	 80
978.6 	 80
978.7 	 82
978.8 	 76
978.9 	 53
979.0 	 36
979.1 	 31
979.2 	 32
979.3 	 25
979.4 	 15
979.5 	 8
979.6 	 5
982.8 	 5
983.2 	 6
983.3 	 7
1222.8 	 5
1222.9 	 7
1223.0 	 9
1223.1 	 14
1223.2 	 20
1223.3 	 26
1223.4 	 28
1223.5 	 25
1223.6 	 22
1223.7 	 24
1223.8 	 24
1223.9 	 19
1224.0 	 14
1224.1 	 11
1224.2 	 8
1224.3 	 5
