##Deconvoluted mass spectrum
1000.0 	 1
6463.2 	 0
6463.3 	 20
6463.4 	 21
6463.5 	 23
6463.6 	 24
6463.7 	 26
6463.8 	 28
6463.9 	 56
6464.0 	 61
6464.1 	 73
6464.2 	 94
6464.3 	 115
6464.4 	 137
6464.5 	 158
6464.6 	 181
6464.7 	 205
6464.8 	 229
6464.9 	 258
6465.0 	 295
6465.1 	 332
6465.2 	 369
6465.3 	 406
6465.4 	 444
6465.5 	 482
6465.6 	 519
6465.7 	 555
6465.8 	 588
6465.9 	 620
6466.0 	 652
6466.1 	 683
6466.2 	 713
6466.3 	 743
6466.4 	 774
6466.5 	 792
6466.6 	 790
6466.7 	 787
6466.8 	 779
6466.9 	 772
6467.0 	 764
6467.1 	 757
6467.2 	 749
6467.3 	 738
6467.4 	 720
6467.5 	 702
6467.6 	 684
6467.7 	 667
6467.8 	 650
6467.9 	 632
6468.0 	 615
6468.1 	 601
6468.2 	 592
6468.3 	 584
6468.4 	 574
6468.5 	 563
6468.6 	 552
6468.7 	 541
6468.8 	 532
6468.9 	 526
6469.0 	 525
6469.1 	 524
6469.2 	 522
6469.3 	 519
6469.4 	 510
6469.5 	 501
6469.6 	 490
6469.7 	 477
6469.8 	 460
6469.9 	 442
6470.0 	 425
6470.1 	 408
6470.2 	 390
6470.3 	 371
6470.4 	 352
6470.5 	 331
6470.6 	 307
6470.7 	 283
6470.8 	 259
6470.9 	 220
6471.0 	 198
6471.1 	 178
6471.2 	 161
6471.3 	 145
6471.4 	 131
6471.5 	 118
6471.6 	 104
6471.7 	 91
6471.8 	 77
6471.9 	 64
6472.0 	 51
6472.1 	 6
6472.2 	 8
6472.3 	 9
6472.4 	 11
6472.5 	 12
6472.6 	 14
6472.7 	 15
6472.8 	 17
6472.9 	 18
6473.0 	 18
6473.1 	 19
6473.2 	 19
6473.3 	 19
6473.4 	 20
6473.5 	 20
6473.6 	 20
6473.7 	 21
6473.8 	 21
6473.9 	 20
6474.0 	 19
6474.1 	 18
6474.2 	 17
6474.3 	 16
6474.4 	 15
6474.5 	 14
6474.6 	 13
6474.7 	 12
6474.8 	 11
6474.9 	 10
6475.0 	 8
6475.1 	 7
6475.2 	 6
6475.3 	 5
6475.4 	 4
6475.5 	 3
6475.7 	 0
6660.8 	 0
6660.9 	 32
6661.0 	 98
6661.1 	 148
6661.2 	 174
6661.3 	 199
6661.4 	 225
6661.5 	 250
6661.6 	 276
6661.7 	 301
6661.8 	 324
6661.9 	 348
6662.0 	 371
6662.1 	 394
6662.2 	 416
6662.3 	 438
6662.4 	 460
6662.5 	 480
6662.6 	 495
6662.7 	 511
6662.8 	 523
6662.9 	 525
6663.0 	 528
6663.1 	 528
6663.2 	 524
6663.3 	 518
6663.4 	 512
6663.5 	 506
6663.6 	 499
6663.7 	 492
6663.8 	 481
6663.9 	 471
6664.0 	 460
6664.1 	 450
6664.2 	 438
6664.3 	 427
6664.4 	 415
6664.5 	 403
6664.6 	 392
6664.7 	 382
6664.8 	 372
6664.9 	 363
6665.0 	 356
6665.1 	 349
6665.2 	 344
6665.3 	 338
6665.4 	 333
6665.5 	 328
6665.6 	 324
6665.7 	 307
6665.8 	 304
6665.9 	 300
6666.0 	 297
6666.1 	 294
6666.2 	 293
6666.3 	 292
6666.4 	 290
6666.5 	 284
6666.6 	 278
6666.7 	 272
6666.8 	 266
6666.9 	 259
6667.0 	 253
6667.1 	 247
6667.2 	 240
6667.3 	 231
6667.4 	 221
6667.5 	 210
6667.6 	 200
6667.7 	 189
6667.8 	 179
6667.9 	 168
6668.0 	 158
6668.1 	 147
6668.2 	 136
6668.3 	 127
6668.4 	 118
6668.5 	 108
6668.6 	 99
6668.7 	 90
6668.8 	 81
6668.9 	 72
6669.0 	 63
6669.1 	 47
6669.2 	 44
6669.3 	 42
6669.4 	 39
6669.5 	 36
6669.6 	 33
6669.7 	 30
6669.8 	 27
6669.9 	 24
6670.0 	 21
6670.2 	 0
6791.0 	 0
6791.1 	 18
6791.2 	 28
6791.3 	 63
6791.4 	 83
6791.5 	 104
6791.6 	 124
6791.7 	 78
6791.8 	 88
6791.9 	 98
6792.0 	 108
6792.1 	 120
6792.2 	 139
6792.3 	 159
6792.4 	 210
6792.5 	 412
6792.6 	 477
6792.7 	 557
6792.8 	 627
6792.9 	 766
6793.0 	 930
6793.1 	 1095
6793.2 	 1266
6793.3 	 1468
6793.4 	 1743
6793.5 	 2018
6793.6 	 2295
6793.7 	 2599
6793.8 	 2944
6793.9 	 3285
6794.0 	 3625
6794.1 	 3976
6794.2 	 4346
6794.3 	 4799
6794.4 	 5253
6794.5 	 5687
6794.6 	 6085
6794.7 	 6484
6794.8 	 6869
6794.9 	 7267
6795.0 	 7664
6795.1 	 8161
6795.2 	 8917
6795.3 	 9642
6795.4 	 10313
6795.5 	 10985
6795.6 	 11656
6795.7 	 12321
6795.8 	 12978
6795.9 	 13635
6796.0 	 14287
6796.1 	 14912
6796.2 	 15523
6796.3 	 16148
6796.4 	 16753
6796.5 	 17355
6796.6 	 17956
6796.7 	 18557
6796.8 	 19158
6796.9 	 19613
6797.0 	 19718
6797.1 	 19802
6797.2 	 19872
6797.3 	 19943
6797.4 	 20013
6797.5 	 20084
6797.6 	 20155
6797.7 	 20214
6797.8 	 20040
6797.9 	 19344
6798.0 	 18647
6798.1 	 17924
6798.2 	 17100
6798.3 	 16276
6798.4 	 15451
6798.5 	 14610
6798.6 	 13743
6798.7 	 12891
6798.8 	 12078
6798.9 	 11265
6799.0 	 10452
6799.1 	 9632
6799.2 	 8788
6799.3 	 7952
6799.4 	 7139
6799.5 	 6326
6799.6 	 5620
6799.7 	 5180
6799.8 	 4739
6799.9 	 4298
6800.0 	 3856
6800.1 	 3443
6800.2 	 3095
6800.3 	 2747
6800.4 	 2383
6800.5 	 2120
6800.6 	 2062
6800.7 	 2008
6800.8 	 1953
6800.9 	 1912
6801.0 	 1894
6801.1 	 1886
6801.2 	 1919
6801.3 	 1954
6801.4 	 1971
6801.5 	 1938
6801.6 	 1906
6801.7 	 1871
6801.8 	 1829
6801.9 	 1788
6802.0 	 1745
6802.1 	 1700
6802.2 	 1649
6802.3 	 1596
6802.4 	 1541
6802.5 	 1486
6802.6 	 1431
6802.7 	 1354
6802.8 	 1300
6802.9 	 1245
6803.0 	 1190
6803.1 	 1135
6803.2 	 1078
6803.3 	 1024
6803.4 	 970
6803.5 	 917
6803.6 	 864
6803.7 	 810
6803.8 	 757
6803.9 	 704
6804.0 	 650
6804.1 	 541
6804.2 	 516
6804.3 	 492
6804.4 	 467
6804.5 	 498
6804.6 	 471
6804.7 	 445
6804.8 	 418
6804.9 	 392
6805.0 	 372
6805.1 	 364
6805.2 	 365
6805.3 	 366
6805.4 	 366
6805.5 	 367
6805.6 	 368
6805.7 	 368
6805.8 	 368
6805.9 	 365
6806.0 	 359
6806.1 	 354
6806.2 	 355
6806.3 	 356
6806.4 	 357
6806.5 	 358
6806.6 	 359
6806.7 	 359
6806.8 	 100
6806.9 	 100
6807.0 	 100
6807.1 	 100
6807.2 	 97
6807.3 	 308
6807.4 	 300
6807.5 	 291
6807.6 	 282
6807.7 	 256
6807.8 	 247
6807.9 	 237
6808.0 	 228
6808.1 	 143
6808.2 	 134
6808.3 	 125
6808.4 	 116
6808.5 	 107
6808.6 	 164
6808.7 	 160
6808.8 	 157
6808.9 	 154
6809.0 	 151
6809.1 	 147
6809.2 	 144
6809.3 	 165
6809.4 	 162
6809.5 	 161
6809.6 	 165
6809.7 	 170
6809.8 	 175
6809.9 	 181
6810.0 	 61
6810.1 	 25
6810.2 	 25
6810.3 	 25
6810.4 	 173
6810.5 	 221
6810.6 	 224
6810.7 	 226
6810.8 	 229
6810.9 	 231
6811.0 	 234
6811.1 	 237
6811.2 	 241
6811.3 	 243
6811.4 	 237
6811.5 	 232
6811.6 	 226
6811.7 	 221
6811.8 	 215
6811.9 	 210
6812.0 	 204
6812.1 	 199
6812.2 	 195
6812.3 	 189
6812.4 	 183
6812.5 	 159
6812.6 	 153
6812.7 	 146
6812.8 	 140
6812.9 	 134
6813.0 	 127
6813.1 	 122
6813.2 	 120
6813.3 	 135
6813.4 	 132
6813.5 	 130
6813.6 	 127
6813.7 	 126
6813.8 	 126
6813.9 	 126
6814.0 	 129
6814.1 	 137
6814.2 	 145
6814.3 	 152
6814.4 	 160
6814.5 	 167
6814.6 	 173
6814.7 	 178
6814.8 	 184
6814.9 	 190
6815.0 	 198
6815.1 	 205
6815.2 	 214
6815.3 	 223
6815.4 	 230
6815.5 	 238
6815.6 	 245
6815.7 	 253
6815.8 	 259
6815.9 	 262
6816.0 	 264
6816.1 	 268
6816.2 	 273
6816.3 	 279
6816.4 	 285
6816.5 	 290
6816.6 	 296
6816.7 	 301
6816.8 	 305
6816.9 	 309
6817.0 	 314
6817.1 	 320
6817.2 	 325
6817.3 	 330
6817.4 	 335
6817.5 	 340
6817.6 	 347
6817.7 	 354
6817.8 	 361
6817.9 	 368
6818.0 	 374
6818.1 	 381
6818.2 	 386
6818.3 	 391
6818.4 	 396
6818.5 	 400
6818.6 	 402
6818.7 	 404
6818.8 	 406
6818.9 	 408
6819.0 	 410
6819.1 	 412
6819.2 	 414
6819.3 	 415
6819.4 	 413
6819.5 	 407
6819.6 	 402
6819.7 	 396
6819.8 	 390
6819.9 	 384
6820.0 	 378
6820.1 	 374
6820.2 	 371
6820.3 	 365
6820.4 	 351
6820.5 	 336
6820.6 	 321
6820.7 	 307
6820.8 	 292
6820.9 	 279
6821.0 	 267
6821.1 	 255
6821.2 	 244
6821.3 	 233
6821.4 	 222
6821.5 	 211
6821.6 	 200
6821.7 	 189
6821.8 	 176
6821.9 	 164
6822.0 	 151
6822.1 	 140
6822.2 	 134
6822.3 	 128
6822.4 	 122
6822.5 	 115
6822.6 	 107
6822.7 	 98
6822.8 	 90
6822.9 	 82
6823.0 	 75
6823.1 	 60
6823.2 	 58
6823.3 	 42
6823.4 	 42
6823.5 	 42
6823.6 	 43
6823.7 	 43
6823.8 	 44
6823.9 	 44
6824.0 	 44
6824.1 	 44
6824.2 	 44
6824.3 	 44
6824.4 	 43
6824.5 	 43
6824.6 	 43
6824.7 	 43
6824.8 	 43
6824.9 	 41
6825.0 	 40
6825.1 	 38
6825.2 	 37
6825.3 	 35
6825.4 	 34
6825.5 	 32
6825.6 	 31
6825.7 	 30
6825.8 	 28
6825.9 	 26
6826.0 	 24
6826.1 	 22
6826.2 	 20
6826.3 	 18
6826.4 	 16
6826.5 	 14
6826.6 	 13
6826.7 	 12
6826.8 	 12
6826.9 	 12
6827.0 	 11
6827.1 	 11
6827.2 	 10
6827.3 	 10
6827.4 	 9
6827.5 	 9
6827.6 	 11
6827.7 	 12
6827.8 	 14
6827.9 	 15
6828.0 	 17
6828.1 	 18
6828.2 	 20
6828.3 	 21
6828.5 	 0
8800.0 	 1
##ESI mass spectrum
##Adduct mass = -1.0079
665.1 	 30
665.2 	 101
665.3 	 163
665.4 	 150
665.5 	 108
665.6 	 83
665.7 	 86
665.8 	 77
665.9 	 48
666.0 	 19
678.1 	 16
678.2 	 116
678.3 	 309
678.4 	 583
678.5 	 841
678.6 	 1575
678.7 	 2568
678.8 	 3156
678.9 	 2422
679.0 	 1408
679.1 	 796
679.2 	 693
679.3 	 504
679.4 	 276
679.5 	 114
679.6 	 59
679.7 	 80
679.8 	 76
679.9 	 51
680.0 	 25
680.1 	 23
680.2 	 42
680.3 	 53
680.4 	 39
680.5 	 22
680.6 	 20
680.7 	 32
680.8 	 42
680.9 	 37
681.0 	 25
681.1 	 15
681.2 	 14
681.3 	 13
683.8 	 15
683.9 	 19
684.0 	 16
684.1 	 16
684.2 	 21
684.3 	 21
717.2 	 8
717.3 	 23
717.4 	 38
717.5 	 44
717.6 	 71
717.7 	 110
717.8 	 129
717.9 	 80
718.0 	 25
718.1 	 4
718.2 	 18
718.3 	 21
718.4 	 12
718.5 	 2
721.7 	 8
721.8 	 20
721.9 	 25
722.0 	 25
722.1 	 30
722.2 	 38
722.3 	 35
722.4 	 17
722.5 	 2
739.1 	 57
739.2 	 175
739.3 	 288
739.4 	 284
739.5 	 242
739.6 	 217
739.7 	 208
739.8 	 150
739.9 	 64
740.0 	 8
741.2 	 2
741.3 	 4
741.4 	 2
753.7 	 22
753.8 	 333
753.9 	 1570
754.0 	 3818
754.1 	 8843
754.2 	 13708
754.3 	 14381
754.4 	 8373
754.5 	 2825
754.6 	 628
754.7 	 1008
754.8 	 770
754.9 	 503
755.0 	 271
755.1 	 195
755.2 	 253
755.3 	 259
755.4 	 181
755.5 	 101
755.6 	 94
755.7 	 148
755.8 	 178
755.9 	 137
756.0 	 70
756.1 	 59
756.2 	 117
756.3 	 191
756.4 	 221
756.5 	 232
756.6 	 273
756.7 	 326
756.8 	 321
756.9 	 207
757.0 	 94
757.1 	 40
757.2 	 44
757.3 	 43
757.4 	 30
757.5 	 13
757.6 	 9
757.7 	 22
757.8 	 28
757.9 	 16
758.0 	 2
758.2 	 9
758.3 	 14
758.4 	 9
758.7 	 2
758.8 	 4
758.9 	 2
759.6 	 4
759.7 	 25
759.8 	 56
759.9 	 69
760.0 	 58
760.1 	 49
760.2 	 54
760.3 	 52
760.4 	 28
806.9 	 19
807.0 	 32
807.1 	 171
807.2 	 414
807.3 	 624
807.4 	 573
807.5 	 441
807.6 	 357
807.7 	 332
807.8 	 251
807.9 	 129
808.0 	 40
810.2 	 17
810.3 	 34
810.4 	 32
810.5 	 13
810.8 	 15
812.1 	 29
812.2 	 89
812.3 	 139
812.4 	 123
812.5 	 83
812.6 	 57
812.7 	 56
812.8 	 50
812.9 	 26
831.6 	 30
831.7 	 73
831.8 	 100
831.9 	 74
832.0 	 38
832.1 	 15
832.2 	 13
847.9 	 21
848.1 	 186
848.2 	 987
848.3 	 2295
848.4 	 3175
848.5 	 3380
848.6 	 3157
848.7 	 2764
848.8 	 2101
848.9 	 1116
849.0 	 431
849.1 	 169
849.2 	 198
849.3 	 150
849.4 	 102
849.5 	 64
849.6 	 48
849.7 	 47
849.8 	 34
849.9 	 16
850.2 	 26
850.3 	 45
850.4 	 40
850.5 	 17
850.7 	 18
850.8 	 42
850.9 	 49
851.0 	 45
851.1 	 54
851.2 	 78
851.3 	 87
851.4 	 60
851.5 	 27
851.6 	 20
851.7 	 34
851.8 	 34
851.9 	 16
854.8 	 16
854.9 	 14
922.4 	 17
922.5 	 33
922.6 	 68
922.7 	 108
922.8 	 132
922.9 	 103
923.0 	 67
923.1 	 49
923.2 	 48
923.3 	 35
923.4 	 16
969.4 	 35
969.5 	 60
969.6 	 127
969.7 	 223
969.8 	 304
969.9 	 266
970.0 	 185
970.1 	 141
970.2 	 155
970.3 	 148
970.4 	 92
970.5 	 37
970.6 	 17
970.7 	 25
970.8 	 22
973.2 	 12
1131.1 	 13
1131.2 	 48
1131.3 	 86
1131.4 	 95
1131.5 	 89
1131.6 	 104
1131.7 	 134
1131.8 	 139
1131.9 	 93
1132.0 	 50
1132.1 	 34
1132.2 	 38
1132.3 	 28
1132.4 	 15
1135.2 	 13
1135.3 	 18
1135.4 	 12
1357.8 	 12
1357.9 	 13
1358.3 	 16
1358.4 	 16
