##Deconvoluted mass spectrum
1000.0 	 1
5833.1 	 0
5833.2 	 15
5833.3 	 15
5833.4 	 16
5833.5 	 16
5833.6 	 16
5833.7 	 33
5833.8 	 36
5833.9 	 40
5834.0 	 43
5834.1 	 45
5834.2 	 48
5834.3 	 51
5834.4 	 54
5834.5 	 56
5834.6 	 60
5834.7 	 63
5834.8 	 81
5834.9 	 86
5835.0 	 90
5835.1 	 95
5835.2 	 100
5835.3 	 104
5835.4 	 108
5835.5 	 112
5835.6 	 117
5835.7 	 121
5835.8 	 125
5835.9 	 129
5836.0 	 132
5836.1 	 137
5836.2 	 144
5836.3 	 150
5836.4 	 157
5836.5 	 164
5836.6 	 170
5836.7 	 175
5836.8 	 178
5836.9 	 182
5837.0 	 188
5837.1 	 193
5837.2 	 198
5837.3 	 204
5837.4 	 180
5837.5 	 188
5837.6 	 195
5837.7 	 202
5837.8 	 206
5837.9 	 211
5838.0 	 215
5838.1 	 219
5838.2 	 224
5838.3 	 228
5838.4 	 233
5838.5 	 233
5838.6 	 226
5838.7 	 219
5838.8 	 213
5838.9 	 206
5839.0 	 200
5839.1 	 193
5839.2 	 186
5839.3 	 178
5839.4 	 168
5839.5 	 158
5839.6 	 147
5839.7 	 137
5839.8 	 127
5839.9 	 116
5840.0 	 106
5840.1 	 97
5840.2 	 67
5840.3 	 62
5840.4 	 57
5840.5 	 52
5840.6 	 46
5840.7 	 41
5840.8 	 36
5840.9 	 33
5841.0 	 33
5841.1 	 32
5841.2 	 32
5841.3 	 32
5841.4 	 32
5841.5 	 31
5841.6 	 31
5841.7 	 31
5841.8 	 30
5841.9 	 29
5842.0 	 28
5842.1 	 28
5842.2 	 27
5842.3 	 26
5842.4 	 26
5842.5 	 24
5842.6 	 23
5842.7 	 21
5842.8 	 20
5842.9 	 18
5843.0 	 17
5843.1 	 15
5843.2 	 14
5843.4 	 0
5965.2 	 0
5965.3 	 23
5965.4 	 27
5965.5 	 50
5965.6 	 67
5965.7 	 101
5965.8 	 122
5965.9 	 157
5966.0 	 182
5966.1 	 207
5966.2 	 244
5966.3 	 296
5966.4 	 348
5966.5 	 410
5966.6 	 506
5966.7 	 587
5966.8 	 668
5966.9 	 749
5967.0 	 830
5967.1 	 915
5967.2 	 1010
5967.3 	 1112
5967.4 	 1192
5967.5 	 1258
5967.6 	 1411
5967.7 	 1656
5967.8 	 1904
5967.9 	 2153
5968.0 	 2404
5968.1 	 2905
5968.2 	 3816
5968.3 	 4779
5968.4 	 5806
5968.5 	 6833
5968.6 	 7859
5968.7 	 8905
5968.8 	 9932
5968.9 	 11122
5969.0 	 12561
5969.1 	 13948
5969.2 	 15332
5969.3 	 16715
5969.4 	 18097
5969.5 	 19475
5969.6 	 20848
5969.7 	 21896
5969.8 	 22462
5969.9 	 22990
5970.0 	 23538
5970.1 	 24089
5970.2 	 24645
5970.3 	 25201
5970.4 	 25704
5970.5 	 25597
5970.6 	 24554
5970.7 	 23513
5970.8 	 22466
5970.9 	 21420
5971.0 	 20373
5971.1 	 19385
5971.2 	 18426
5971.3 	 17365
5971.4 	 16108
5971.5 	 14852
5971.6 	 13594
5971.7 	 12337
5971.8 	 11149
5971.9 	 10040
5972.0 	 8928
5972.1 	 7993
5972.2 	 7364
5972.3 	 6734
5972.4 	 6105
5972.5 	 5471
5972.6 	 4819
5972.7 	 4184
5972.8 	 3549
5972.9 	 3126
5973.0 	 3068
5973.1 	 3012
5973.2 	 2956
5973.3 	 2898
5973.4 	 2838
5973.5 	 2776
5973.6 	 2714
5973.7 	 2629
5973.8 	 2503
5973.9 	 2384
5974.0 	 2276
5974.1 	 2168
5974.2 	 2059
5974.3 	 1948
5974.4 	 1832
5974.5 	 1719
5974.6 	 1622
5974.7 	 1538
5974.8 	 1455
5974.9 	 1354
5975.0 	 1272
5975.1 	 1190
5975.2 	 1108
5975.3 	 1040
5975.4 	 988
5975.5 	 937
5975.6 	 885
5975.7 	 832
5975.8 	 780
5975.9 	 729
5976.0 	 674
5976.1 	 628
5976.2 	 604
5976.3 	 580
5976.4 	 556
5976.5 	 533
5976.6 	 509
5976.7 	 369
5976.8 	 349
5976.9 	 337
5977.0 	 342
5977.1 	 436
5977.2 	 437
5977.3 	 438
5977.4 	 439
5977.5 	 442
5977.6 	 444
5977.7 	 443
5977.8 	 437
5977.9 	 430
5978.0 	 422
5978.1 	 416
5978.2 	 411
5978.3 	 407
5978.4 	 402
5978.5 	 62
5978.6 	 60
5978.7 	 57
5978.8 	 14
5978.9 	 294
5979.0 	 283
5979.1 	 271
5979.2 	 260
5979.3 	 278
5979.4 	 264
5979.5 	 249
5979.6 	 234
5979.7 	 219
5979.8 	 206
5979.9 	 193
5980.0 	 180
5980.1 	 170
5980.2 	 146
5980.3 	 141
5980.4 	 136
5980.5 	 131
5980.6 	 126
5980.7 	 120
5980.8 	 115
5980.9 	 113
5981.0 	 117
5981.1 	 121
5981.2 	 124
5981.3 	 128
5981.4 	 132
5981.5 	 135
5981.6 	 140
5981.7 	 144
5981.8 	 148
5981.9 	 152
5982.0 	 143
5982.9 	 14
5983.0 	 14
5983.1 	 13
5983.2 	 13
5983.4 	 0
5983.8 	 0
5987.4 	 0
8000.0 	 1
##ESI mass spectrum
##Adduct mass = -1.0079
647.3 	 14
647.4 	 20
647.5 	 24
647.6 	 29
647.7 	 34
647.8 	 36
647.9 	 24
661.8 	 22
661.9 	 54
662.0 	 69
662.1 	 188
662.2 	 422
662.3 	 663
662.4 	 659
662.5 	 528
662.6 	 418
662.7 	 383
662.8 	 311
662.9 	 178
663.0 	 75
663.1 	 38
663.2 	 50
663.3 	 42
663.4 	 21
663.8 	 13
664.9 	 12
707.3 	 12
728.2 	 15
728.3 	 42
728.4 	 67
728.5 	 77
728.6 	 114
728.7 	 170
728.8 	 201
728.9 	 146
729.0 	 74
729.1 	 33
729.2 	 31
729.3 	 25
729.4 	 13
744.7 	 16
744.8 	 46
744.9 	 299
745.0 	 422
745.1 	 5744
745.2 	 14803
745.3 	 20688
745.4 	 14710
745.5 	 6262
745.6 	 1682
745.7 	 1717
745.8 	 1208
745.9 	 766
746.0 	 421
746.1 	 294
746.2 	 348
746.3 	 336
746.4 	 231
746.5 	 122
746.6 	 89
746.7 	 131
746.8 	 159
746.9 	 129
747.0 	 74
747.1 	 61
747.2 	 107
747.3 	 147
747.4 	 115
747.5 	 54
747.6 	 81
747.7 	 200
747.8 	 293
747.9 	 240
748.0 	 149
748.1 	 121
748.2 	 155
748.3 	 152
748.4 	 83
748.5 	 19
748.7 	 21
748.8 	 27
748.9 	 15
749.2 	 17
749.3 	 25
749.4 	 15
751.6 	 30
751.7 	 74
751.8 	 110
751.9 	 89
752.0 	 53
752.1 	 35
752.2 	 41
752.3 	 36
752.4 	 18
808.1 	 15
808.2 	 52
808.3 	 79
808.4 	 63
808.5 	 37
808.6 	 27
808.7 	 31
808.8 	 26
808.9 	 12
810.3 	 14
810.4 	 17
810.7 	 18
810.8 	 24
810.9 	 14
832.3 	 15
832.4 	 17
832.5 	 13
832.6 	 18
832.7 	 34
832.8 	 45
832.9 	 30
851.2 	 14
851.3 	 107
851.4 	 402
851.5 	 694
851.6 	 2120
851.7 	 4363
851.8 	 5984
851.9 	 4783
852.0 	 2758
852.1 	 1444
852.2 	 1201
852.3 	 844
852.4 	 465
852.5 	 211
852.6 	 126
852.7 	 144
852.8 	 118
852.9 	 68
853.0 	 27
853.1 	 13
853.2 	 25
853.3 	 30
853.4 	 23
853.5 	 12
853.8 	 15
854.6 	 26
854.7 	 59
854.8 	 84
854.9 	 70
855.0 	 51
855.1 	 47
855.2 	 53
855.3 	 45
855.4 	 25
859.2 	 22
859.3 	 27
859.4 	 20
859.5 	 14
993.3 	 12
993.4 	 39
993.5 	 57
993.6 	 102
993.7 	 180
993.8 	 250
993.9 	 221
994.0 	 146
994.1 	 110
994.2 	 132
994.3 	 143
994.4 	 102
994.5 	 56
994.6 	 30
994.7 	 27
994.8 	 18
997.7 	 14
997.8 	 17
997.9 	 14
1192.3 	 16
1192.4 	 29
1192.5 	 36
1192.6 	 50
1192.7 	 67
1192.8 	 80
1192.9 	 68
1193.0 	 49
1193.1 	 40
1193.2 	 45
1193.3 	 44
1193.4 	 30
1193.5 	 15
1490.8 	 12
1491.2 	 21
1491.3 	 26
1491.4 	 20
1491.8 	 13
