##Deconvoluted mass spectrum
1000.0 	 1
7825.4 	 0
7825.5 	 11
7825.6 	 12
7825.7 	 12
7825.8 	 13
7825.9 	 14
7826.0 	 15
7826.1 	 36
7826.2 	 44
7826.3 	 53
7826.4 	 61
7826.5 	 86
7826.6 	 98
7826.7 	 111
7826.8 	 124
7826.9 	 137
7827.0 	 150
7827.1 	 164
7827.2 	 178
7827.3 	 192
7827.4 	 206
7827.5 	 220
7827.6 	 234
7827.7 	 248
7827.8 	 263
7827.9 	 278
7828.0 	 292
7828.1 	 306
7828.2 	 313
7828.3 	 319
7828.4 	 322
7828.5 	 325
7828.6 	 329
7828.7 	 332
7828.8 	 335
7828.9 	 338
7829.0 	 340
7829.1 	 342
7829.2 	 341
7829.3 	 338
7829.4 	 336
7829.5 	 334
7829.6 	 331
7829.7 	 329
7829.8 	 326
7829.9 	 323
7830.0 	 317
7830.1 	 312
7830.2 	 310
7830.3 	 307
7830.4 	 305
7830.5 	 302
7830.6 	 300
7830.7 	 297
7830.8 	 295
7830.9 	 293
7831.0 	 290
7831.1 	 288
7831.2 	 288
7831.3 	 288
7831.4 	 287
7831.5 	 287
7831.6 	 286
7831.7 	 286
7831.8 	 286
7831.9 	 285
7832.0 	 284
7832.1 	 281
7832.2 	 277
7832.3 	 272
7832.4 	 268
7832.5 	 263
7832.6 	 258
7832.7 	 254
7832.8 	 249
7832.9 	 243
7833.0 	 237
7833.1 	 230
7833.2 	 219
7833.3 	 209
7833.4 	 200
7833.5 	 190
7833.6 	 180
7833.7 	 157
7833.8 	 148
7833.9 	 140
7834.0 	 132
7834.1 	 124
7834.2 	 118
7834.3 	 110
7834.4 	 103
7834.5 	 96
7834.6 	 89
7834.7 	 81
7834.8 	 74
7834.9 	 67
7835.0 	 60
7835.1 	 36
7835.2 	 34
7835.3 	 33
7835.4 	 32
7835.5 	 30
7835.6 	 29
7835.7 	 27
7835.8 	 26
7835.9 	 24
7836.0 	 22
7836.1 	 21
7836.2 	 19
7836.3 	 18
7836.4 	 16
7836.6 	 0
7957.0 	 0
7957.1 	 30
7957.2 	 41
7957.3 	 52
7957.4 	 62
7957.5 	 73
7957.6 	 84
7957.7 	 157
7957.8 	 176
7957.9 	 386
7958.0 	 461
7958.1 	 544
7958.2 	 655
7958.3 	 767
7958.4 	 878
7958.5 	 990
7958.6 	 1101
7958.7 	 1212
7958.8 	 1343
7958.9 	 1522
7959.0 	 1701
7959.1 	 1885
7959.2 	 2082
7959.3 	 2278
7959.4 	 2472
7959.5 	 2667
7959.6 	 2862
7959.7 	 3109
7959.8 	 3356
7959.9 	 3604
7960.0 	 3852
7960.1 	 4171
7960.2 	 4758
7960.3 	 5344
7960.4 	 5930
7960.5 	 6515
7960.6 	 7124
7960.7 	 7797
7960.8 	 8470
7960.9 	 9143
7961.0 	 9818
7961.1 	 10534
7961.2 	 11407
7961.3 	 12275
7961.4 	 13144
7961.5 	 13992
7961.6 	 14787
7961.7 	 15581
7961.8 	 16370
7961.9 	 17159
7962.0 	 17945
7962.1 	 18682
7962.2 	 19231
7962.3 	 19780
7962.4 	 20264
7962.5 	 20581
7962.6 	 20887
7962.7 	 21194
7962.8 	 21501
7962.9 	 21809
7963.0 	 22116
7963.1 	 22259
7963.2 	 21790
7963.3 	 21233
7963.4 	 20460
7963.5 	 19688
7963.6 	 18915
7963.7 	 18143
7963.8 	 17370
7963.9 	 16596
7964.0 	 15821
7964.1 	 15015
7964.2 	 14110
7964.3 	 13242
7964.4 	 12375
7964.5 	 11508
7964.6 	 10641
7964.7 	 9773
7964.8 	 8905
7964.9 	 8041
7965.0 	 7183
7965.1 	 6427
7965.2 	 5992
7965.3 	 5557
7965.4 	 5123
7965.5 	 4689
7965.6 	 4256
7965.7 	 3821
7965.8 	 3386
7965.9 	 2951
7966.0 	 2552
7966.1 	 2305
7966.2 	 2286
7966.3 	 2278
7966.4 	 2270
7966.5 	 2261
7966.6 	 2250
7966.7 	 2240
7966.8 	 2230
7966.9 	 2211
7967.0 	 2171
7967.1 	 2124
7967.2 	 2051
7967.3 	 1979
7967.4 	 1907
7967.5 	 1833
7967.6 	 1760
7967.7 	 1686
7967.8 	 1613
7967.9 	 1540
7968.0 	 1468
7968.1 	 1375
7968.2 	 1299
7968.3 	 1237
7968.4 	 1176
7968.5 	 1092
7968.6 	 1045
7968.7 	 986
7968.8 	 931
7968.9 	 865
7969.0 	 810
7969.1 	 758
7969.2 	 716
7969.3 	 674
7969.4 	 632
7969.5 	 591
7969.6 	 551
7969.7 	 519
7969.8 	 487
7969.9 	 454
7970.0 	 422
7970.1 	 394
7970.2 	 380
7970.3 	 366
7970.4 	 353
7970.5 	 341
7970.6 	 333
7970.7 	 326
7970.8 	 318
7970.9 	 311
7971.0 	 303
7971.1 	 298
7971.2 	 304
7971.3 	 310
7971.4 	 229
7971.5 	 233
7971.6 	 236
7971.7 	 240
7971.8 	 243
7971.9 	 327
7972.0 	 330
7972.1 	 331
7972.2 	 328
7972.3 	 325
7972.4 	 319
7972.5 	 314
7972.6 	 308
7972.7 	 302
7972.8 	 239
7972.9 	 237
7973.0 	 235
7973.1 	 0
7973.2 	 44
7973.3 	 41
7973.4 	 38
7973.5 	 36
7973.6 	 231
7973.7 	 221
7973.8 	 212
7973.9 	 202
7974.0 	 192
7974.1 	 184
7974.2 	 177
7974.3 	 171
7974.4 	 165
7974.5 	 158
7974.6 	 152
7974.7 	 146
7974.8 	 139
7974.9 	 133
7975.0 	 127
7975.1 	 125
7975.2 	 127
7975.3 	 129
7975.4 	 132
7975.5 	 134
7975.6 	 136
7975.7 	 138
7975.8 	 140
7975.9 	 142
7976.0 	 143
7976.1 	 145
7976.2 	 153
7976.3 	 160
7976.4 	 167
7976.5 	 174
7976.6 	 181
7976.7 	 189
7976.8 	 195
7976.9 	 198
7977.0 	 201
7977.1 	 204
7977.2 	 206
7977.3 	 208
7977.4 	 211
7977.5 	 213
7977.6 	 215
7977.7 	 217
7977.8 	 218
7977.9 	 219
7978.0 	 220
7978.1 	 219
7978.2 	 214
7978.3 	 209
7978.4 	 204
7978.5 	 198
7978.6 	 195
7978.7 	 194
7978.8 	 194
7978.9 	 194
7979.0 	 193
7979.1 	 192
7979.2 	 190
7979.3 	 187
7979.4 	 185
7979.5 	 184
7979.6 	 186
7979.7 	 189
7979.8 	 192
7979.9 	 195
7980.0 	 198
7980.1 	 202
7980.2 	 215
7980.3 	 227
7980.4 	 239
7980.5 	 252
7980.6 	 265
7980.7 	 278
7980.8 	 291
7980.9 	 315
7981.0 	 329
7981.1 	 346
7981.2 	 369
7981.3 	 390
7981.4 	 407
7981.5 	 424
7981.6 	 440
7981.7 	 457
7981.8 	 473
7981.9 	 490
7982.0 	 506
7982.1 	 522
7982.2 	 534
7982.3 	 545
7982.4 	 555
7982.5 	 565
7982.6 	 574
7982.7 	 583
7982.8 	 592
7982.9 	 601
7983.0 	 610
7983.1 	 615
7983.2 	 607
7983.3 	 600
7983.4 	 592
7983.5 	 584
7983.6 	 576
7983.7 	 569
7983.8 	 561
7983.9 	 553
7984.0 	 546
7984.1 	 539
7984.2 	 527
7984.3 	 529
7984.4 	 517
7984.5 	 505
7984.6 	 494
7984.7 	 482
7984.8 	 470
7984.9 	 458
7985.0 	 432
7985.1 	 419
7985.2 	 413
7985.3 	 407
7985.4 	 400
7985.5 	 394
7985.6 	 387
7985.7 	 380
7985.8 	 372
7985.9 	 360
7986.0 	 348
7986.1 	 338
7986.2 	 336
7986.3 	 334
7986.4 	 332
7986.5 	 329
7986.6 	 325
7986.7 	 322
7986.8 	 320
7986.9 	 318
7987.0 	 316
7987.1 	 314
7987.2 	 309
7987.3 	 292
7987.4 	 288
7987.5 	 284
7987.6 	 281
7987.7 	 281
7987.8 	 281
7987.9 	 281
7988.0 	 281
7988.1 	 279
7988.2 	 270
7988.3 	 260
7988.4 	 251
7988.5 	 242
7988.6 	 235
7988.7 	 228
7988.8 	 222
7988.9 	 215
7989.0 	 208
7989.1 	 201
7989.2 	 193
7989.3 	 186
7989.4 	 178
7989.5 	 168
7989.6 	 159
7989.7 	 149
7989.8 	 139
7989.9 	 130
7990.0 	 120
7990.1 	 112
7990.2 	 109
7990.3 	 105
7990.4 	 99
7990.5 	 94
7990.6 	 88
7990.7 	 82
7990.8 	 77
7990.9 	 71
7991.0 	 65
7991.1 	 61
7991.2 	 36
7991.3 	 40
7991.4 	 44
7991.5 	 48
7991.6 	 52
7991.7 	 56
7991.8 	 60
7991.9 	 64
7992.0 	 68
7992.1 	 72
7992.2 	 74
7992.3 	 76
7992.4 	 78
7992.5 	 80
7992.6 	 82
7992.7 	 85
7992.8 	 87
7992.9 	 89
7993.0 	 91
7993.2 	 0
10000.0 	 1
##ESI mass spectrum
##Adduct mass = -1.0079
651.3 	 14
651.4 	 19
651.5 	 20
651.6 	 17
651.7 	 14
651.8 	 12
654.2 	 14
654.3 	 12
662.7 	 12
662.8 	 21
662.9 	 18
685.7 	 15
685.8 	 19
685.9 	 12
708.3 	 14
708.4 	 16
710.4 	 11
710.5 	 19
710.6 	 44
710.7 	 80
710.8 	 112
710.9 	 104
711.0 	 79
711.1 	 56
711.2 	 46
711.3 	 32
711.4 	 15
712.8 	 13
718.3 	 11
718.4 	 14
718.5 	 13
722.6 	 27
722.7 	 54
722.8 	 77
722.9 	 73
723.0 	 56
723.1 	 44
723.2 	 44
723.3 	 41
723.4 	 23
739.3 	 15
739.4 	 14
762.3 	 12
781.6 	 19
781.7 	 95
781.8 	 182
781.9 	 193
782.0 	 166
782.1 	 159
782.2 	 172
782.3 	 150
782.4 	 78
782.5 	 18
783.3 	 12
783.7 	 31
783.8 	 45
783.9 	 27
794.7 	 28
794.8 	 135
794.9 	 607
795.0 	 1226
795.1 	 5178
795.2 	 11138
795.3 	 14713
795.4 	 10533
795.5 	 4835
795.6 	 1662
795.7 	 1500
795.8 	 1017
795.9 	 604
796.0 	 317
796.1 	 218
796.2 	 253
796.3 	 233
796.4 	 166
796.5 	 96
796.6 	 86
796.7 	 139
796.8 	 180
796.9 	 159
797.0 	 115
797.1 	 165
797.2 	 306
797.3 	 421
797.4 	 358
797.5 	 229
797.6 	 176
797.7 	 219
797.8 	 229
797.9 	 145
798.0 	 55
798.1 	 31
798.2 	 71
798.3 	 93
798.4 	 80
798.5 	 66
798.6 	 83
798.7 	 112
798.8 	 107
798.9 	 55
799.2 	 11
799.3 	 21
799.4 	 19
799.7 	 14
799.8 	 22
799.9 	 14
800.2 	 63
800.3 	 130
800.4 	 143
800.5 	 112
800.6 	 91
800.7 	 101
800.8 	 97
800.9 	 51
809.8 	 11
810.2 	 12
810.3 	 18
810.4 	 12
847.2 	 16
847.3 	 24
847.4 	 16
849.7 	 19
849.8 	 40
849.9 	 44
850.0 	 30
850.1 	 14
868.6 	 16
868.7 	 45
868.8 	 71
868.9 	 60
869.0 	 36
869.1 	 27
869.2 	 32
869.3 	 29
869.4 	 14
877.8 	 12
882.2 	 18
882.3 	 22
882.4 	 11
883.2 	 174
883.3 	 675
883.4 	 1786
883.5 	 3331
883.6 	 5679
883.7 	 7370
883.8 	 7041
883.9 	 4013
884.0 	 1468
884.1 	 448
884.2 	 556
884.3 	 383
884.4 	 217
884.5 	 98
884.6 	 65
884.7 	 86
884.8 	 77
884.9 	 45
885.0 	 19
885.1 	 25
885.2 	 54
885.3 	 71
885.4 	 53
885.5 	 25
885.6 	 41
885.7 	 106
885.8 	 177
885.9 	 190
886.0 	 174
886.1 	 170
886.2 	 179
886.3 	 161
886.4 	 102
886.5 	 57
886.6 	 48
886.7 	 62
886.8 	 56
886.9 	 27
887.2 	 36
887.3 	 57
887.4 	 49
887.5 	 28
887.6 	 19
887.7 	 28
887.8 	 34
887.9 	 20
889.3 	 17
889.4 	 20
889.5 	 20
889.6 	 32
889.7 	 52
889.8 	 56
889.9 	 30
899.8 	 11
900.2 	 14
900.3 	 16
956.0 	 11
956.1 	 11
958.3 	 17
958.4 	 12
993.7 	 44
993.8 	 106
993.9 	 165
994.0 	 207
994.1 	 291
994.2 	 397
994.3 	 457
994.4 	 356
994.5 	 218
994.6 	 133
994.7 	 124
994.8 	 101
994.9 	 59
995.0 	 23
996.6 	 11
996.7 	 21
996.8 	 27
996.9 	 20
997.0 	 12
997.1 	 15
997.2 	 22
997.3 	 22
997.4 	 12
998.2 	 11
998.3 	 11
1009.1 	 12
1009.2 	 13
1061.3 	 11
1135.8 	 15
1135.9 	 22
1136.0 	 29
1136.1 	 58
1136.2 	 97
1136.3 	 119
1136.4 	 95
1136.5 	 63
1136.6 	 48
1136.7 	 48
1136.8 	 41
1136.9 	 27
1137.0 	 16
1137.1 	 11
1137.2 	 14
1137.3 	 15
1137.4 	 12
1139.6 	 13
1139.7 	 12
1325.6 	 11
1325.7 	 16
1325.8 	 20
1325.9 	 20
1326.0 	 18
1326.1 	 24
1326.2 	 34
1326.3 	 38
1326.4 	 26
1326.5 	 16
1326.6 	 13
1326.7 	 12
