##Deconvoluted mass spectrum
1000.0 	 1
2191.1 	 0
2191.3 	 4
2191.4 	 5
2191.5 	 6
2191.6 	 8
2191.7 	 12
2191.8 	 15
2191.9 	 20
2192.0 	 25
2192.1 	 31
2192.2 	 35
2192.3 	 39
2192.4 	 43
2192.5 	 42
2192.6 	 40
2192.7 	 38
2192.8 	 33
2192.9 	 28
2193.0 	 23
2193.1 	 19
2193.2 	 15
2193.3 	 11
2193.4 	 9
2193.5 	 7
2193.6 	 5
2193.7 	 4
2193.8 	 3
2193.9 	 2
2194.0 	 0
4264.1 	 0
4264.3 	 2
4264.4 	 3
4264.5 	 4
4264.6 	 4
4264.7 	 5
4264.8 	 6
4264.9 	 6
4265.0 	 6
4265.1 	 7
4265.2 	 7
4265.3 	 8
4265.4 	 8
4265.5 	 8
4265.6 	 8
4265.7 	 7
4265.8 	 7
4265.9 	 6
4266.0 	 6
4266.1 	 6
4266.2 	 6
4266.3 	 6
4268.8 	 3
4268.9 	 3
4269.0 	 3
4269.1 	 4
4269.2 	 5
4269.3 	 6
4269.4 	 7
4269.5 	 8
4269.6 	 9
4269.7 	 10
4269.8 	 10
4269.9 	 11
4270.0 	 11
4270.1 	 12
4270.2 	 12
4270.3 	 12
4270.4 	 11
4270.5 	 10
4270.6 	 10
4270.7 	 9
4270.8 	 8
4270.9 	 8
4271.0 	 6
4271.1 	 6
4271.2 	 4
4271.3 	 4
4271.4 	 2
4271.5 	 2
4271.6 	 2
4271.7 	 2
4273.0 	 3
4273.1 	 3
4273.2 	 3
4273.3 	 3
4273.4 	 4
4273.5 	 4
4273.6 	 4
4273.7 	 4
4273.8 	 5
4273.9 	 5
4274.0 	 4
4274.1 	 4
4274.2 	 4
4274.3 	 4
4274.5 	 0
6823.8 	 0
6823.9 	 3
6824.0 	 3
6824.1 	 4
6824.2 	 4
6824.3 	 4
6824.4 	 4
6824.5 	 4
6824.6 	 5
6824.7 	 5
6824.8 	 5
6824.9 	 5
6825.0 	 4
6825.1 	 4
6825.2 	 4
6825.3 	 4
6825.4 	 4
6825.5 	 3
6825.6 	 3
6825.7 	 3
6825.8 	 3
6825.9 	 3
6826.0 	 4
6826.1 	 4
6828.0 	 6
6828.1 	 7
6828.2 	 7
6828.3 	 7
6828.4 	 7
6828.5 	 7
6828.6 	 8
6828.7 	 8
6828.8 	 8
6828.9 	 9
6829.0 	 9
6829.1 	 9
6829.2 	 10
6829.3 	 10
6829.4 	 9
6829.5 	 9
6829.6 	 8
6829.7 	 8
6829.8 	 8
6829.9 	 7
6830.0 	 7
6830.1 	 6
6830.2 	 6
6830.3 	 6
6830.4 	 6
6830.5 	 6
6830.6 	 5
6832.5 	 2
6832.6 	 2
6832.7 	 2
6832.8 	 2
6832.9 	 2
6833.0 	 2
6833.1 	 2
6833.2 	 3
6833.3 	 3
6833.4 	 3
6833.5 	 3
6833.6 	 4
6833.7 	 4
6833.8 	 4
6833.9 	 4
6834.0 	 4
6834.1 	 4
6834.2 	 4
6834.3 	 3
6834.4 	 3
6834.5 	 3
6834.6 	 3
6834.7 	 3
6834.8 	 3
6834.9 	 3
6835.0 	 3
6835.1 	 3
6837.0 	 3
6837.1 	 3
6837.2 	 3
6837.3 	 3
6837.4 	 3
6837.5 	 3
6837.6 	 4
6837.7 	 4
6837.8 	 4
6837.9 	 4
6838.0 	 4
6838.1 	 5
6838.2 	 5
6838.4 	 0
7534.8 	 0
7534.9 	 4
7535.0 	 4
7535.1 	 5
7535.2 	 5
7535.3 	 5
7535.4 	 6
7535.5 	 6
7535.6 	 6
7535.7 	 7
7535.8 	 7
7535.9 	 7
7536.0 	 7
7536.1 	 24
7536.2 	 30
7536.3 	 35
7536.4 	 41
7536.5 	 46
7536.6 	 52
7536.7 	 57
7536.8 	 62
7536.9 	 66
7537.0 	 71
7537.1 	 76
7537.2 	 82
7537.3 	 148
7537.4 	 158
7537.5 	 168
7537.6 	 180
7537.7 	 225
7537.8 	 243
7537.9 	 260
7538.0 	 278
7538.1 	 295
7538.2 	 308
7538.3 	 321
7538.4 	 333
7538.5 	 342
7538.6 	 352
7538.7 	 362
7538.8 	 372
7538.9 	 381
7539.0 	 391
7539.1 	 400
7539.2 	 407
7539.3 	 413
7539.4 	 418
7539.5 	 421
7539.6 	 423
7539.7 	 426
7539.8 	 428
7539.9 	 430
7540.0 	 432
7540.1 	 434
7540.2 	 438
7540.3 	 439
7540.4 	 433
7540.5 	 427
7540.6 	 421
7540.7 	 416
7540.8 	 410
7540.9 	 405
7541.0 	 400
7541.1 	 395
7541.2 	 392
7541.3 	 386
7541.4 	 380
7541.5 	 374
7541.6 	 369
7541.7 	 363
7541.8 	 358
7541.9 	 353
7542.0 	 348
7542.1 	 343
7542.2 	 340
7542.3 	 337
7542.4 	 334
7542.5 	 312
7542.6 	 310
7542.7 	 309
7542.8 	 307
7542.9 	 304
7543.0 	 303
7543.1 	 303
7543.2 	 298
7543.3 	 293
7543.4 	 287
7543.5 	 282
7543.6 	 277
7543.7 	 272
7543.8 	 266
7543.9 	 261
7544.0 	 252
7544.1 	 244
7544.2 	 234
7544.3 	 225
7544.4 	 215
7544.5 	 206
7544.6 	 196
7544.7 	 187
7544.8 	 177
7544.9 	 165
7545.0 	 154
7545.1 	 143
7545.2 	 134
7545.3 	 126
7545.4 	 118
7545.5 	 109
7545.6 	 101
7545.7 	 92
7545.8 	 84
7545.9 	 76
7546.0 	 68
7546.1 	 46
7546.2 	 44
7546.3 	 42
7546.4 	 40
7546.5 	 38
7546.6 	 32
7546.7 	 32
7546.8 	 32
7546.9 	 32
7547.0 	 32
7547.1 	 32
7547.2 	 31
7547.3 	 30
7547.4 	 28
7547.5 	 27
7547.6 	 26
7547.7 	 25
7547.8 	 24
7547.9 	 23
7548.0 	 22
7548.1 	 21
7548.2 	 20
7548.3 	 18
7548.4 	 17
7548.5 	 16
7548.6 	 15
7548.7 	 14
7548.8 	 12
7548.9 	 11
7549.0 	 10
7549.2 	 0
7551.9 	 0
7552.0 	 2
7552.1 	 4
7552.2 	 5
7552.3 	 7
7552.4 	 8
7552.5 	 10
7552.6 	 11
7552.7 	 12
7552.8 	 14
7552.9 	 16
7553.0 	 18
7553.1 	 20
7553.2 	 22
7553.3 	 24
7553.4 	 26
7553.5 	 28
7553.6 	 30
7553.7 	 58
7553.8 	 62
7553.9 	 64
7554.0 	 67
7554.1 	 69
7554.2 	 72
7554.3 	 74
7554.4 	 77
7554.5 	 78
7554.6 	 78
7554.7 	 76
7554.8 	 74
7554.9 	 72
7555.0 	 70
7555.1 	 67
7555.2 	 79
7555.3 	 77
7555.4 	 76
7555.5 	 74
7555.6 	 80
7555.7 	 55
7555.8 	 56
7555.9 	 43
7556.0 	 44
7556.1 	 46
7556.2 	 48
7556.3 	 49
7556.4 	 51
7556.5 	 75
7556.6 	 79
7556.7 	 83
7556.8 	 87
7556.9 	 92
7557.0 	 99
7557.1 	 106
7557.2 	 113
7557.3 	 120
7557.4 	 127
7557.5 	 132
7557.6 	 137
7557.7 	 142
7557.8 	 144
7557.9 	 148
7558.0 	 150
7558.1 	 153
7558.2 	 155
7558.3 	 156
7558.4 	 152
7558.5 	 146
7558.6 	 140
7558.7 	 133
7558.8 	 126
7558.9 	 119
7559.0 	 112
7559.1 	 105
7559.2 	 97
7559.3 	 70
7559.4 	 64
7559.5 	 58
7559.6 	 52
7559.7 	 47
7559.8 	 41
7559.9 	 35
7560.0 	 29
7560.1 	 24
7560.2 	 23
7560.3 	 22
7560.4 	 20
7560.5 	 18
7560.6 	 17
7560.7 	 15
7560.8 	 14
7560.9 	 12
7561.0 	 12
7561.1 	 14
7561.2 	 17
7561.3 	 19
7561.4 	 22
7561.5 	 24
7561.6 	 27
7561.7 	 29
7561.8 	 32
7561.9 	 34
7562.0 	 35
7562.1 	 36
7562.2 	 38
7562.3 	 39
7562.4 	 40
7562.5 	 41
7562.6 	 42
7562.7 	 44
7562.8 	 44
7562.9 	 42
7563.0 	 41
7563.1 	 39
7563.2 	 37
7563.3 	 35
7563.4 	 32
7563.5 	 30
7563.6 	 28
7563.7 	 26
7563.8 	 24
7563.9 	 21
7564.0 	 19
7564.1 	 13
7564.2 	 11
7564.3 	 9
7564.4 	 7
7564.5 	 5
7564.7 	 0
7667.0 	 0
7667.1 	 20
7667.2 	 26
7667.3 	 31
7667.4 	 37
7667.5 	 43
7667.6 	 48
7667.7 	 54
7667.8 	 59
7667.9 	 65
7668.0 	 71
7668.1 	 77
7668.2 	 92
7668.3 	 103
7668.4 	 114
7668.5 	 124
7668.6 	 135
7668.7 	 146
7668.8 	 156
7668.9 	 281
7669.0 	 411
7669.1 	 577
7669.2 	 740
7669.3 	 954
7669.4 	 1130
7669.5 	 1306
7669.6 	 1481
7669.7 	 1692
7669.8 	 1962
7669.9 	 2276
7670.0 	 2699
7670.1 	 3130
7670.2 	 3585
7670.3 	 4041
7670.4 	 4497
7670.5 	 4961
7670.6 	 5441
7670.7 	 5918
7670.8 	 6446
7670.9 	 7117
7671.0 	 7789
7671.1 	 8466
7671.2 	 9170
7671.3 	 9853
7671.4 	 10501
7671.5 	 11146
7671.6 	 11791
7671.7 	 12454
7671.8 	 13158
7671.9 	 13861
7672.0 	 14565
7672.1 	 15249
7672.2 	 15894
7672.3 	 16538
7672.4 	 17183
7672.5 	 17828
7672.6 	 18441
7672.7 	 18976
7672.8 	 19512
7672.9 	 20013
7673.0 	 20449
7673.1 	 20868
7673.2 	 21226
7673.3 	 21585
7673.4 	 21943
7673.5 	 22189
7673.6 	 22162
7673.7 	 22085
7673.8 	 21923
7673.9 	 21760
7674.0 	 21598
7674.1 	 21430
7674.2 	 21236
7674.3 	 21040
7674.4 	 20733
7674.5 	 20104
7674.6 	 19385
7674.7 	 18667
7674.8 	 17949
7674.9 	 17230
7675.0 	 16511
7675.1 	 15795
7675.2 	 15094
7675.3 	 14352
7675.4 	 13488
7675.5 	 12623
7675.6 	 11761
7675.7 	 10899
7675.8 	 10038
7675.9 	 9175
7676.0 	 8308
7676.1 	 7494
7676.2 	 6851
7676.3 	 6378
7676.4 	 5879
7676.5 	 5410
7676.6 	 4942
7676.7 	 4473
7676.8 	 4005
7676.9 	 3567
7677.0 	 3182
7677.1 	 2875
7677.2 	 2757
7677.3 	 2640
7677.4 	 2522
7677.5 	 2404
7677.6 	 2287
7677.7 	 2158
7677.8 	 2011
7677.9 	 1864
7678.0 	 1762
7678.1 	 1765
7678.2 	 1758
7678.3 	 1750
7678.4 	 1723
7678.5 	 1715
7678.6 	 1704
7678.7 	 1692
7678.8 	 1681
7678.9 	 1653
7679.0 	 1582
7679.1 	 1513
7679.2 	 1451
7679.3 	 1390
7679.4 	 1334
7679.5 	 1277
7679.6 	 1220
7679.7 	 1163
7679.8 	 1103
7679.9 	 1035
7680.0 	 967
7680.1 	 906
7680.2 	 861
7680.3 	 817
7680.4 	 772
7680.5 	 727
7680.6 	 682
7680.7 	 638
7680.8 	 597
7680.9 	 500
7681.0 	 464
7681.1 	 432
7681.2 	 407
7681.3 	 449
7681.4 	 427
7681.5 	 404
7681.6 	 385
7681.7 	 376
7681.8 	 365
7681.9 	 355
7682.0 	 344
7682.1 	 332
7682.2 	 320
7682.3 	 307
7682.4 	 294
7682.5 	 158
7682.6 	 153
7682.7 	 147
7682.8 	 141
7682.9 	 135
7683.0 	 274
7683.1 	 195
7683.2 	 195
7683.3 	 196
7683.4 	 195
7683.5 	 192
7683.6 	 260
7683.7 	 257
7683.8 	 253
7683.9 	 92
7684.0 	 88
7684.1 	 86
7684.2 	 85
7684.3 	 242
7684.4 	 237
7684.5 	 233
7684.6 	 228
7684.7 	 224
7684.8 	 219
7684.9 	 215
7685.0 	 212
7685.1 	 209
7685.2 	 206
7685.3 	 202
7685.4 	 198
7685.5 	 194
7685.6 	 190
7685.7 	 186
7685.8 	 175
7685.9 	 171
7686.0 	 166
7686.1 	 133
7686.2 	 132
7686.3 	 131
7686.4 	 135
7686.5 	 168
7686.6 	 118
7686.7 	 118
7686.8 	 117
7686.9 	 117
7687.0 	 118
7687.1 	 166
7687.2 	 169
7687.3 	 173
7687.4 	 176
7687.5 	 176
7687.6 	 180
7687.7 	 183
7687.8 	 186
7687.9 	 189
7688.0 	 191
7688.1 	 193
7688.2 	 197
7688.3 	 200
7688.4 	 204
7688.5 	 207
7688.6 	 210
7688.7 	 214
7688.8 	 216
7688.9 	 214
7689.0 	 213
7689.1 	 213
7689.2 	 213
7689.3 	 213
7689.4 	 213
7689.5 	 213
7689.6 	 213
7689.7 	 216
7689.8 	 214
7689.9 	 211
7690.0 	 209
7690.1 	 206
7690.2 	 205
7690.3 	 204
7690.4 	 203
7690.5 	 201
7690.6 	 200
7690.7 	 203
7690.8 	 207
7690.9 	 211
7691.0 	 214
7691.1 	 218
7691.2 	 223
7691.3 	 226
7691.4 	 229
7691.5 	 233
7691.6 	 243
7691.7 	 253
7691.8 	 263
7691.9 	 273
7692.0 	 283
7692.1 	 295
7692.2 	 311
7692.3 	 326
7692.4 	 341
7692.5 	 355
7692.6 	 369
7692.7 	 384
7692.8 	 398
7692.9 	 414
7693.0 	 434
7693.1 	 453
7693.2 	 472
7693.3 	 487
7693.4 	 494
7693.5 	 502
7693.6 	 509
7693.7 	 516
7693.8 	 521
7693.9 	 527
7694.0 	 533
7694.1 	 539
7694.2 	 544
7694.3 	 546
7694.4 	 548
7694.5 	 546
7694.6 	 537
7694.7 	 529
7694.8 	 520
7694.9 	 512
7695.0 	 503
7695.1 	 496
7695.2 	 490
7695.3 	 484
7695.4 	 476
7695.5 	 469
7695.6 	 461
7695.7 	 454
7695.8 	 446
7695.9 	 438
7696.0 	 432
7696.1 	 428
7696.2 	 425
7696.3 	 423
7696.4 	 420
7696.5 	 418
7696.6 	 415
7696.7 	 413
7696.8 	 410
7696.9 	 408
7697.0 	 405
7697.1 	 401
7697.2 	 396
7697.3 	 392
7697.4 	 390
7697.5 	 385
7697.6 	 380
7697.7 	 374
7697.8 	 366
7697.9 	 353
7698.0 	 340
7698.1 	 327
7698.2 	 312
7698.3 	 297
7698.4 	 282
7698.5 	 266
7698.6 	 249
7698.7 	 233
7698.8 	 217
7698.9 	 202
7699.0 	 187
7699.1 	 172
7699.2 	 157
7699.3 	 110
7699.4 	 98
7699.5 	 87
7699.6 	 75
7699.7 	 72
7699.8 	 68
7699.9 	 64
7700.0 	 60
7700.1 	 17
7700.2 	 16
7700.3 	 15
7700.4 	 14
7700.5 	 13
7700.6 	 12
7700.7 	 11
7700.8 	 10
7700.9 	 9
7701.0 	 38
7701.1 	 36
7701.2 	 36
7701.3 	 36
7701.4 	 36
7701.5 	 39
7701.6 	 41
7701.7 	 43
7701.8 	 48
7701.9 	 50
7702.0 	 52
7702.1 	 54
7702.2 	 57
7702.3 	 23
7702.4 	 25
7702.5 	 26
7702.6 	 28
7702.7 	 30
7702.8 	 64
7702.9 	 61
7703.0 	 62
7703.1 	 62
7703.2 	 62
7703.3 	 62
7703.4 	 66
7703.5 	 66
7703.6 	 65
7703.7 	 36
7703.8 	 36
7703.9 	 36
7704.0 	 36
7704.1 	 36
7704.2 	 36
7704.3 	 35
7704.4 	 34
7704.5 	 34
7704.6 	 56
7704.7 	 55
7704.8 	 53
7704.9 	 52
7705.0 	 52
7705.1 	 56
7705.2 	 61
7705.3 	 85
7705.4 	 89
7705.5 	 93
7705.6 	 96
7705.7 	 101
7705.8 	 108
7705.9 	 114
7706.0 	 119
7706.1 	 126
7706.2 	 129
7706.3 	 135
7706.4 	 141
7706.5 	 146
7706.6 	 151
7706.7 	 155
7706.8 	 157
7706.9 	 154
7707.0 	 152
7707.1 	 130
7707.2 	 128
7707.3 	 125
7707.4 	 120
7707.5 	 116
7707.6 	 129
7707.7 	 123
7707.8 	 116
7707.9 	 108
7708.0 	 101
7708.1 	 94
7708.2 	 89
7708.3 	 84
7708.4 	 79
7708.5 	 58
7708.6 	 53
7708.7 	 51
7708.8 	 48
7708.9 	 46
7709.0 	 44
7709.1 	 41
7709.2 	 39
7709.3 	 38
7709.4 	 36
7709.5 	 35
7709.6 	 32
7709.7 	 34
7709.8 	 36
7709.9 	 37
7710.0 	 39
7710.1 	 59
7710.2 	 61
7710.3 	 62
7710.4 	 64
7710.5 	 46
7710.6 	 49
7710.7 	 49
7710.8 	 49
7710.9 	 50
7711.0 	 50
7711.1 	 50
7711.2 	 51
7711.3 	 51
7711.4 	 49
7711.5 	 47
7711.6 	 45
7711.7 	 47
7711.8 	 45
7711.9 	 43
7712.0 	 41
7712.1 	 39
7712.2 	 12
7712.3 	 13
7712.4 	 15
7712.5 	 17
7712.6 	 18
7712.7 	 20
7712.8 	 22
7712.9 	 23
7713.0 	 25
7713.1 	 27
7713.2 	 28
7713.3 	 29
7713.4 	 29
7713.5 	 30
7713.6 	 31
7713.7 	 31
7713.8 	 32
7713.9 	 32
7714.0 	 33
7714.1 	 34
7714.2 	 34
7714.3 	 34
7714.4 	 35
7714.5 	 33
7714.6 	 32
7714.7 	 31
7714.8 	 30
7714.9 	 28
7715.0 	 27
7715.1 	 26
7715.2 	 25
7715.3 	 24
7715.4 	 23
7715.5 	 22
7715.6 	 17
7715.7 	 16
7715.8 	 14
7715.9 	 13
7716.0 	 12
7716.1 	 11
7716.2 	 10
7716.3 	 8
7716.4 	 7
7716.5 	 6
7716.6 	 8
7716.7 	 8
7716.8 	 7
7716.9 	 7
7717.0 	 7
7717.1 	 7
7717.2 	 2
7717.3 	 2
7717.4 	 2
7717.5 	 2
7718.0 	 0
7718.1 	 3
7718.2 	 3
7718.3 	 3
7718.4 	 3
7718.5 	 3
7718.6 	 2
7718.7 	 2
7718.8 	 2
7718.9 	 2
7719.0 	 2
7719.1 	 2
7719.2 	 2
7719.3 	 2
7719.4 	 2
7719.5 	 2
7720.2 	 0
7720.3 	 17
7720.4 	 17
7720.5 	 18
7720.6 	 20
7720.7 	 20
7720.8 	 20
7720.9 	 20
7721.0 	 21
7721.1 	 21
7721.2 	 22
7721.3 	 22
7721.4 	 22
7721.5 	 23
7721.6 	 23
7721.7 	 6
7721.8 	 6
7721.9 	 7
7722.0 	 8
7722.1 	 8
7722.2 	 9
7722.3 	 9
7722.4 	 10
7722.5 	 10
7722.6 	 28
7722.7 	 28
7722.8 	 29
7722.9 	 29
7723.0 	 30
7723.1 	 34
7723.2 	 37
7723.3 	 40
7723.4 	 43
7723.5 	 46
7723.6 	 49
7723.7 	 52
7723.8 	 58
7723.9 	 61
7724.0 	 65
7724.1 	 69
7724.2 	 73
7724.3 	 77
7724.4 	 82
7724.5 	 86
7724.6 	 91
7724.7 	 95
7724.8 	 98
7724.9 	 98
7725.0 	 98
7725.1 	 98
7725.2 	 98
7725.3 	 98
7725.4 	 94
7725.5 	 93
7725.6 	 93
7725.7 	 92
7725.8 	 89
7725.9 	 86
7726.0 	 87
7726.1 	 84
7726.2 	 81
7726.3 	 79
7726.4 	 76
7726.5 	 73
7726.6 	 71
7726.7 	 70
7726.8 	 68
7726.9 	 66
7727.0 	 64
7727.1 	 63
7727.2 	 60
7727.3 	 58
7727.4 	 56
7727.5 	 55
7727.6 	 55
7727.7 	 56
7727.8 	 56
7727.9 	 57
7728.0 	 58
7728.1 	 58
7728.2 	 58
7728.3 	 57
7728.4 	 57
7728.5 	 56
7728.6 	 56
7728.7 	 55
7728.8 	 54
7728.9 	 54
7729.0 	 53
7729.1 	 52
7729.2 	 52
7729.3 	 52
7729.4 	 51
7729.5 	 50
7729.6 	 41
7729.7 	 40
7729.8 	 38
7729.9 	 36
7730.0 	 35
7730.1 	 33
7730.2 	 18
7730.3 	 18
7730.4 	 17
7730.5 	 17
7730.6 	 17
7730.7 	 17
7730.8 	 17
7730.9 	 17
7731.0 	 16
7731.1 	 16
7731.2 	 15
7731.3 	 14
7731.4 	 13
7731.5 	 12
7731.6 	 20
7731.7 	 19
7731.8 	 18
7731.9 	 18
7732.0 	 17
7732.1 	 16
7732.2 	 16
7732.3 	 16
7732.4 	 16
7732.5 	 16
7732.6 	 16
7732.7 	 16
7732.8 	 15
7732.9 	 15
7733.0 	 15
7733.1 	 15
7733.2 	 14
7733.3 	 14
7733.4 	 13
7733.5 	 13
7733.6 	 12
7733.7 	 12
7733.8 	 11
7733.9 	 11
7734.0 	 10
7734.1 	 10
7734.2 	 9
7734.3 	 9
7734.4 	 9
7734.5 	 8
7734.6 	 8
7734.7 	 8
7734.8 	 7
7734.9 	 7
7735.0 	 7
7735.1 	 4
7735.2 	 5
7735.3 	 5
7735.4 	 5
7735.5 	 5
7735.6 	 5
7735.7 	 5
7735.8 	 4
7735.9 	 4
7736.0 	 4
7736.1 	 4
7736.2 	 4
7736.3 	 4
7736.4 	 4
7736.5 	 4
7736.6 	 4
7736.7 	 3
7736.8 	 3
7736.9 	 3
7737.0 	 3
7737.1 	 3
7737.2 	 2
7737.3 	 2
7737.4 	 2
7737.6 	 0
8379.8 	 0
8379.9 	 2
8380.0 	 2
8380.1 	 2
8380.2 	 3
8380.3 	 3
8380.4 	 3
8380.5 	 3
8380.6 	 3
8380.7 	 4
8380.8 	 4
8380.9 	 4
8381.0 	 4
8381.1 	 4
8381.2 	 5
8381.3 	 5
8381.4 	 6
8381.5 	 6
8381.6 	 7
8381.7 	 7
8381.8 	 8
8381.9 	 8
8382.0 	 9
8382.1 	 9
8382.2 	 10
8382.3 	 12
8382.4 	 13
8382.5 	 14
8382.6 	 16
8382.7 	 17
8382.8 	 18
8382.9 	 19
8383.0 	 21
8383.1 	 22
8383.2 	 23
8383.3 	 24
8383.4 	 25
8383.5 	 26
8383.6 	 27
8383.7 	 28
8383.8 	 29
8383.9 	 30
8384.0 	 31
8384.1 	 32
8384.2 	 33
8384.3 	 34
8384.4 	 34
8384.5 	 34
8384.6 	 33
8384.7 	 33
8384.8 	 33
8384.9 	 33
8385.0 	 33
8385.1 	 32
8385.2 	 32
8385.3 	 32
8385.4 	 32
8385.5 	 30
8385.6 	 28
8385.7 	 27
8385.8 	 25
8385.9 	 24
8386.0 	 22
8386.1 	 20
8386.2 	 19
8386.3 	 17
8386.4 	 15
8386.5 	 14
8386.6 	 13
8386.7 	 12
8386.8 	 11
8386.9 	 10
8387.0 	 8
8387.1 	 7
8387.2 	 6
8387.3 	 5
8387.4 	 4
8387.5 	 3
8387.7 	 0
9212.0 	 0
9212.1 	 24
9212.2 	 24
9212.3 	 24
9212.4 	 24
9212.5 	 24
9212.6 	 24
9212.7 	 25
9212.8 	 25
9212.9 	 25
9213.0 	 25
9213.2 	 0
9700.0 	 1
##ESI mass spectrum
##Adduct mass = -1.0079
684.2 	 60
684.3 	 111
684.4 	 113
684.5 	 95
684.6 	 85
684.7 	 86
684.8 	 72
684.9 	 42
685.0 	 15
694.8 	 2
695.0 	 2
695.1 	 6
695.2 	 9
695.3 	 6
695.4 	 2
696.1 	 6
696.2 	 21
696.3 	 40
696.4 	 48
696.5 	 54
696.6 	 71
696.7 	 90
696.8 	 89
696.9 	 55
697.0 	 27
697.1 	 21
697.2 	 27
697.3 	 21
697.4 	 10
697.5 	 5
697.6 	 7
697.7 	 7
697.8 	 3
698.1 	 4
698.2 	 9
698.3 	 13
698.4 	 9
698.5 	 2
698.8 	 3
698.9 	 2
699.2 	 3
699.3 	 5
699.4 	 4
699.5 	 3
700.1 	 4
700.2 	 18
700.3 	 27
700.4 	 18
700.5 	 5
701.2 	 2
701.3 	 4
701.4 	 5
701.5 	 8
701.6 	 13
701.7 	 18
701.8 	 17
701.9 	 9
702.0 	 2
702.1 	 2
702.2 	 5
702.3 	 4
702.4 	 2
703.3 	 2
704.3 	 2
706.0 	 2
706.1 	 4
706.2 	 6
706.3 	 6
706.4 	 3
709.7 	 2
709.8 	 6
709.9 	 8
710.0 	 6
710.5 	 3
710.6 	 10
710.7 	 12
710.8 	 8
710.9 	 2
711.2 	 3
711.3 	 5
711.4 	 3
716.7 	 3
716.8 	 5
716.9 	 3
729.4 	 3
729.5 	 6
729.6 	 16
729.7 	 32
729.8 	 44
729.9 	 37
730.0 	 22
730.1 	 10
730.2 	 5
730.3 	 2
733.5 	 6
733.6 	 15
733.7 	 18
733.8 	 14
733.9 	 5
735.7 	 7
735.8 	 10
735.9 	 6
740.7 	 3
740.8 	 5
740.9 	 3
741.1 	 6
741.2 	 16
741.3 	 18
741.4 	 8
741.5 	 2
741.6 	 4
741.7 	 5
741.8 	 2
751.1 	 2
751.2 	 9
751.3 	 15
751.4 	 9
751.5 	 2
752.6 	 16
752.7 	 69
752.8 	 131
752.9 	 149
753.0 	 135
753.1 	 142
753.2 	 176
753.3 	 191
753.4 	 135
753.5 	 69
753.6 	 33
753.7 	 32
753.8 	 21
753.9 	 9
754.6 	 6
754.7 	 13
754.8 	 18
754.9 	 15
755.0 	 8
755.1 	 5
755.2 	 6
755.3 	 8
755.4 	 4
757.2 	 3
757.3 	 5
757.4 	 3
757.7 	 7
757.8 	 10
757.9 	 6
758.2 	 2
758.3 	 4
758.4 	 3
758.7 	 3
758.8 	 5
758.9 	 3
759.2 	 3
759.3 	 5
759.4 	 3
760.8 	 2
760.9 	 4
761.0 	 9
761.1 	 23
761.2 	 34
761.3 	 32
761.4 	 14
761.5 	 2
764.8 	 2
765.7 	 19
765.8 	 75
765.9 	 168
766.0 	 216
766.1 	 590
766.2 	 1279
766.3 	 1883
766.4 	 1711
766.5 	 1249
766.6 	 968
766.7 	 937
766.8 	 778
766.9 	 457
767.0 	 208
767.1 	 100
767.2 	 99
767.3 	 77
767.4 	 65
767.5 	 60
767.6 	 53
767.7 	 43
767.8 	 33
767.9 	 24
768.0 	 20
768.1 	 27
768.2 	 41
768.3 	 51
768.4 	 51
768.5 	 55
768.6 	 68
768.7 	 77
768.8 	 69
768.9 	 43
769.0 	 17
769.1 	 7
769.2 	 17
769.3 	 31
769.4 	 32
769.5 	 26
769.6 	 21
769.7 	 20
769.8 	 13
769.9 	 5
770.1 	 2
770.2 	 7
770.3 	 11
770.4 	 9
770.5 	 5
770.7 	 2
770.8 	 3
770.9 	 2
771.1 	 2
771.2 	 8
771.3 	 14
771.4 	 12
771.5 	 11
771.6 	 11
771.7 	 16
771.8 	 16
771.9 	 8
772.2 	 8
772.3 	 13
772.4 	 8
772.5 	 2
778.7 	 7
778.8 	 10
778.9 	 6
779.3 	 2
779.4 	 3
779.5 	 2
781.1 	 2
781.2 	 9
781.3 	 14
781.4 	 9
781.5 	 2
784.7 	 7
784.8 	 11
784.9 	 7
785.2 	 6
785.3 	 9
785.4 	 6
814.7 	 3
814.8 	 6
814.9 	 5
815.0 	 2
815.2 	 5
815.3 	 8
815.4 	 5
816.6 	 3
816.7 	 16
816.8 	 24
816.9 	 16
817.0 	 3
817.3 	 2
817.6 	 5
817.7 	 17
817.8 	 22
817.9 	 12
818.2 	 4
818.3 	 6
818.4 	 3
819.6 	 2
819.7 	 8
819.8 	 12
819.9 	 8
836.2 	 4
836.3 	 7
836.4 	 8
836.5 	 3
836.6 	 35
836.7 	 101
836.8 	 156
836.9 	 121
837.0 	 57
837.1 	 29
837.2 	 44
837.3 	 43
837.4 	 22
837.5 	 4
838.1 	 2
838.2 	 15
838.3 	 34
838.4 	 41
838.5 	 33
838.6 	 44
838.7 	 79
838.8 	 99
838.9 	 63
839.0 	 17
839.1 	 6
839.2 	 28
839.3 	 37
839.4 	 21
839.5 	 4
845.2 	 4
845.3 	 6
845.4 	 4
845.8 	 2
851.1 	 14
851.2 	 659
851.3 	 2692
851.4 	 6526
851.5 	 10872
851.6 	 14218
851.7 	 14138
851.8 	 10648
851.9 	 4976
852.0 	 1445
852.1 	 440
852.2 	 818
852.3 	 666
852.4 	 411
852.5 	 197
852.6 	 124
852.7 	 158
852.8 	 158
852.9 	 122
853.0 	 80
853.1 	 82
853.2 	 130
853.3 	 166
853.4 	 146
853.5 	 106
853.6 	 135
853.7 	 235
853.8 	 329
853.9 	 321
854.0 	 275
854.1 	 258
854.2 	 265
854.3 	 227
854.4 	 128
854.5 	 46
854.7 	 26
854.8 	 36
854.9 	 31
855.1 	 21
855.2 	 64
855.3 	 104
855.4 	 86
855.5 	 45
855.6 	 30
855.7 	 45
855.8 	 49
855.9 	 26
856.8 	 17
856.9 	 19
857.1 	 16
857.2 	 45
857.3 	 84
857.4 	 82
857.5 	 53
857.6 	 31
857.7 	 32
857.8 	 29
857.9 	 14
920.2 	 24
920.3 	 25
921.8 	 18
941.2 	 30
941.3 	 55
941.4 	 59
941.5 	 51
941.6 	 41
941.7 	 32
941.8 	 20
943.2 	 25
943.3 	 39
943.4 	 28
943.6 	 19
943.7 	 39
943.8 	 41
943.9 	 20
957.6 	 83
957.7 	 760
957.8 	 2195
957.9 	 3851
958.0 	 5080
958.1 	 5877
958.2 	 5872
958.3 	 4784
958.4 	 2549
958.5 	 950
958.6 	 396
958.7 	 509
958.8 	 393
958.9 	 227
959.0 	 103
959.1 	 59
959.2 	 73
959.3 	 60
959.4 	 35
959.5 	 15
959.6 	 14
959.7 	 26
959.8 	 34
959.9 	 30
960.0 	 21
960.1 	 24
960.2 	 45
960.3 	 64
960.4 	 59
960.5 	 36
960.6 	 60
960.7 	 129
960.8 	 188
960.9 	 158
961.0 	 102
961.1 	 69
961.2 	 70
961.3 	 60
961.4 	 33
962.2 	 19
962.3 	 34
962.4 	 32
962.5 	 15
962.8 	 19
1078.3 	 14
1078.4 	 14
1094.6 	 31
1094.7 	 99
1094.8 	 170
1094.9 	 174
1095.0 	 146
1095.1 	 142
1095.2 	 165
1095.3 	 166
1095.4 	 121
1095.5 	 77
1095.6 	 54
1095.7 	 49
1095.8 	 38
1095.9 	 21
1277.2 	 15
1277.3 	 34
1277.4 	 42
1277.5 	 38
1277.6 	 38
1277.7 	 49
1277.8 	 61
1277.9 	 58
1278.0 	 45
1278.1 	 38
1278.2 	 41
1278.3 	 43
1278.4 	 27
