##Deconvoluted mass spectrum
1000.0 	 1
1511.3 	 0
1512.0 	 206
1512.1 	 162
1512.2 	 126
1512.3 	 136
1512.4 	 156
1512.5 	 168
1512.6 	 178
1512.7 	 170
1512.8 	 159
1512.9 	 143
1513.0 	 127
1513.1 	 132
1513.2 	 141
1513.3 	 163
1513.4 	 188
1513.5 	 195
1513.7 	 166
1513.8 	 126
1513.9 	 85
1514.0 	 44
1514.1 	 41
1514.2 	 46
1514.3 	 87
1514.4 	 135
1514.5 	 180
1514.6 	 225
1514.7 	 231
1514.8 	 229
1514.9 	 210
1515.0 	 188
1515.1 	 186
1515.2 	 187
1515.3 	 207
1515.4 	 231
1515.5 	 238
1515.6 	 242
1515.7 	 205
1515.8 	 160
1515.9 	 113
1516.0 	 66
1516.1 	 43
1516.2 	 23
1516.3 	 26
1516.4 	 32
1516.5 	 34
1516.6 	 36
1516.7 	 30
1516.8 	 23
1516.9 	 16
1517.0 	 8
1517.1 	 7
1517.2 	 7
1517.3 	 12
1517.4 	 18
1517.5 	 21
1517.6 	 23
1517.7 	 0
4310.3 	 0
4310.5 	 3
4310.6 	 4
4310.7 	 6
4310.8 	 7
4310.9 	 9
4311.0 	 10
4311.1 	 17
4311.2 	 29
4311.3 	 41
4311.4 	 53
4311.5 	 65
4311.6 	 76
4311.7 	 91
4311.8 	 108
4311.9 	 125
4312.0 	 142
4312.1 	 160
4312.2 	 177
4312.3 	 191
4312.4 	 202
4312.5 	 213
4312.6 	 224
4312.7 	 236
4312.8 	 247
4312.9 	 248
4313.0 	 239
4313.1 	 231
4313.2 	 223
4313.3 	 214
4313.4 	 206
4313.5 	 196
4313.6 	 186
4313.7 	 175
4313.8 	 164
4313.9 	 154
4314.0 	 143
4314.1 	 135
4314.2 	 129
4314.3 	 123
4314.4 	 117
4314.5 	 112
4314.6 	 106
4314.7 	 102
4314.8 	 100
4314.9 	 98
4315.0 	 95
4315.1 	 93
4315.2 	 91
4315.3 	 87
4315.4 	 81
4315.5 	 74
4315.6 	 68
4315.7 	 62
4315.8 	 56
4315.9 	 50
4316.0 	 44
4316.1 	 39
4316.2 	 33
4316.3 	 27
4316.4 	 22
4316.5 	 18
4316.6 	 15
4316.7 	 12
4316.8 	 9
4316.9 	 6
4317.0 	 3
4317.1 	 0
5902.4 	 0
5902.5 	 23
5902.6 	 25
5902.7 	 27
5902.8 	 29
5902.9 	 31
5903.0 	 33
5903.1 	 35
5903.2 	 65
5903.3 	 66
5903.4 	 66
5903.5 	 67
5903.6 	 67
5903.7 	 68
5903.8 	 68
5903.9 	 68
5904.0 	 68
5904.1 	 68
5904.2 	 68
5904.3 	 69
5904.4 	 69
5904.5 	 70
5904.6 	 50
5904.7 	 52
5904.8 	 54
5904.9 	 56
5905.0 	 58
5905.1 	 61
5905.2 	 65
5905.3 	 68
5905.4 	 71
5905.5 	 75
5905.6 	 78
5905.7 	 81
5905.8 	 85
5905.9 	 88
5906.0 	 91
5906.1 	 94
5906.2 	 98
5906.3 	 101
5906.4 	 104
5906.5 	 107
5906.6 	 110
5906.7 	 114
5906.8 	 116
5906.9 	 114
5907.0 	 112
5907.1 	 110
5907.2 	 108
5907.3 	 106
5907.4 	 104
5907.5 	 102
5907.6 	 100
5907.7 	 98
5907.8 	 94
5907.9 	 91
5908.0 	 87
5908.1 	 83
5908.2 	 80
5908.3 	 76
5908.4 	 72
5908.5 	 69
5908.6 	 65
5908.7 	 62
5908.8 	 59
5908.9 	 56
5909.0 	 53
5909.1 	 50
5909.2 	 47
5909.3 	 44
5909.4 	 41
5909.5 	 39
5909.6 	 38
5909.7 	 36
5909.8 	 35
5909.9 	 34
5910.0 	 33
5910.1 	 32
5910.2 	 31
5910.3 	 30
5910.4 	 29
5910.5 	 27
5910.6 	 26
5910.7 	 24
5910.8 	 23
5910.9 	 21
5911.0 	 20
5911.1 	 18
5911.2 	 17
5911.4 	 0
6035.2 	 0
6035.3 	 129
6035.4 	 217
6035.5 	 568
6035.6 	 743
6035.7 	 423
6035.8 	 496
6035.9 	 569
6036.0 	 643
6036.1 	 718
6036.2 	 806
6036.3 	 906
6036.4 	 1006
6036.5 	 2294
6036.6 	 2482
6036.7 	 2671
6036.8 	 2861
6036.9 	 3347
6037.0 	 4343
6037.1 	 5339
6037.2 	 6334
6037.3 	 7328
6037.4 	 8318
6037.5 	 9307
6037.6 	 10316
6037.7 	 11460
6037.8 	 12798
6037.9 	 14130
6038.0 	 15457
6038.1 	 16785
6038.2 	 18112
6038.3 	 19435
6038.4 	 20754
6038.5 	 21723
6038.6 	 22093
6038.7 	 22463
6038.8 	 22832
6038.9 	 23202
6039.0 	 23532
6039.1 	 23815
6039.2 	 24100
6039.3 	 24061
6039.4 	 23463
6039.5 	 22865
6039.6 	 22266
6039.7 	 21590
6039.8 	 20816
6039.9 	 20041
6040.0 	 19267
6040.1 	 18417
6040.2 	 17432
6040.3 	 16446
6040.4 	 15459
6040.5 	 14476
6040.6 	 13492
6040.7 	 12509
6040.8 	 11526
6040.9 	 10680
6041.0 	 10071
6041.1 	 9501
6041.2 	 8977
6041.3 	 8454
6041.4 	 7930
6041.5 	 7408
6041.6 	 6872
6041.7 	 6411
6041.8 	 6084
6041.9 	 5789
6042.0 	 5495
6042.1 	 5203
6042.2 	 4914
6042.3 	 4625
6042.4 	 4336
6042.5 	 4064
6042.6 	 3824
6042.7 	 3586
6042.8 	 3351
6042.9 	 3116
6043.0 	 2880
6043.1 	 2645
6043.2 	 2407
6043.3 	 2195
6043.4 	 2034
6043.5 	 1874
6043.6 	 1715
6043.7 	 1562
6043.8 	 1408
6043.9 	 1225
6044.0 	 1078
6044.1 	 963
6044.2 	 932
6044.3 	 870
6044.4 	 785
6044.5 	 727
6044.6 	 678
6044.7 	 637
6044.8 	 596
6044.9 	 575
6045.0 	 589
6045.1 	 603
6045.2 	 617
6045.3 	 634
6045.4 	 655
6045.5 	 674
6045.6 	 694
6045.7 	 705
6045.8 	 702
6045.9 	 698
6046.0 	 693
6046.1 	 686
6046.2 	 678
6046.3 	 670
6046.4 	 662
6046.5 	 647
6046.6 	 621
6046.7 	 542
6046.8 	 517
6046.9 	 493
6047.0 	 468
6047.1 	 481
6047.2 	 453
6047.3 	 59
6047.4 	 56
6047.5 	 54
6047.6 	 53
6047.7 	 52
6047.8 	 24
6047.9 	 23
6048.0 	 22
6048.1 	 21
6048.2 	 20
6048.3 	 20
6048.4 	 19
6048.5 	 19
6048.6 	 18
6048.7 	 18
6048.8 	 17
6048.9 	 16
6049.0 	 16
6049.1 	 16
6049.2 	 38
6049.3 	 38
6049.4 	 37
6049.5 	 37
6049.6 	 38
6049.7 	 39
6049.8 	 40
6049.9 	 25
6050.0 	 26
6050.1 	 27
6050.2 	 28
6050.3 	 26
6050.4 	 25
6050.5 	 24
6050.6 	 23
6050.7 	 22
6050.8 	 21
6050.9 	 20
6051.0 	 20
6051.1 	 20
6051.2 	 20
6057.3 	 0
7376.0 	 0
7376.1 	 7
7376.2 	 10
7376.3 	 13
7376.4 	 16
7376.5 	 19
7376.6 	 22
7376.7 	 25
7376.8 	 28
7376.9 	 32
7377.0 	 35
7377.1 	 38
7377.2 	 43
7377.3 	 48
7377.4 	 53
7377.5 	 58
7377.6 	 62
7377.7 	 67
7377.8 	 72
7377.9 	 77
7378.0 	 82
7378.1 	 87
7378.2 	 90
7378.3 	 93
7378.4 	 96
7378.5 	 99
7378.6 	 102
7378.7 	 105
7378.8 	 108
7378.9 	 111
7379.0 	 114
7379.1 	 116
7379.2 	 116
7379.3 	 116
7379.4 	 116
7379.5 	 116
7379.6 	 116
7379.7 	 116
7379.8 	 116
7379.9 	 116
7380.0 	 116
7380.1 	 117
7380.2 	 122
7380.3 	 126
7380.4 	 131
7380.5 	 136
7380.6 	 140
7380.7 	 145
7380.8 	 150
7380.9 	 155
7381.0 	 159
7381.1 	 165
7381.2 	 175
7381.3 	 184
7381.4 	 194
7381.5 	 203
7381.6 	 213
7381.7 	 223
7381.8 	 232
7381.9 	 242
7382.0 	 251
7382.1 	 260
7382.2 	 266
7382.3 	 273
7382.4 	 279
7382.5 	 285
7382.6 	 291
7382.7 	 298
7382.8 	 304
7382.9 	 310
7383.0 	 316
7383.1 	 319
7383.2 	 310
7383.3 	 301
7383.4 	 292
7383.5 	 284
7383.6 	 275
7383.7 	 266
7383.8 	 257
7383.9 	 248
7384.0 	 239
7384.1 	 230
7384.2 	 218
7384.3 	 207
7384.4 	 196
7384.5 	 184
7384.6 	 173
7384.7 	 162
7384.8 	 150
7384.9 	 139
7385.0 	 128
7385.1 	 118
7385.2 	 113
7385.3 	 109
7385.4 	 104
7385.5 	 100
7385.6 	 95
7385.7 	 90
7385.8 	 86
7385.9 	 81
7386.0 	 77
7386.1 	 73
7386.2 	 75
7386.3 	 76
7386.4 	 78
7386.5 	 79
7386.6 	 81
7386.7 	 82
7386.8 	 84
7386.9 	 85
7387.0 	 87
7387.1 	 88
7387.2 	 86
7387.3 	 84
7387.4 	 82
7387.5 	 80
7387.6 	 78
7387.7 	 76
7387.8 	 74
7387.9 	 72
7388.0 	 70
7388.1 	 68
7388.2 	 81
7388.3 	 78
7388.4 	 76
7388.5 	 74
7388.6 	 71
7388.7 	 69
7388.8 	 67
7388.9 	 64
7389.0 	 62
7389.1 	 62
7389.2 	 66
7389.3 	 70
7389.4 	 75
7389.5 	 79
7389.6 	 84
7389.7 	 88
7389.8 	 92
7389.9 	 97
7390.0 	 102
7390.1 	 107
7390.2 	 117
7390.3 	 128
7390.4 	 138
7390.5 	 148
7390.6 	 158
7390.7 	 168
7390.8 	 179
7390.9 	 188
7391.0 	 195
7391.1 	 202
7391.2 	 210
7391.3 	 217
7391.4 	 224
7391.5 	 231
7391.6 	 239
7391.7 	 246
7391.8 	 250
7391.9 	 245
7392.0 	 241
7392.1 	 237
7392.2 	 232
7392.3 	 228
7392.4 	 224
7392.5 	 219
7392.6 	 215
7392.7 	 210
7392.8 	 203
7392.9 	 197
7393.0 	 190
7393.1 	 183
7393.2 	 177
7393.3 	 170
7393.4 	 163
7393.5 	 157
7393.6 	 151
7393.7 	 149
7393.8 	 146
7393.9 	 144
7394.0 	 141
7394.1 	 138
7394.2 	 136
7394.3 	 133
7394.4 	 131
7394.5 	 129
7394.6 	 130
7394.7 	 130
7394.8 	 130
7394.9 	 131
7395.0 	 131
7395.1 	 132
7395.2 	 132
7395.3 	 133
7395.4 	 132
7395.5 	 129
7395.6 	 127
7395.7 	 124
7395.8 	 121
7395.9 	 118
7396.0 	 116
7396.1 	 113
7396.2 	 110
7396.3 	 106
7396.4 	 100
7396.5 	 94
7396.6 	 88
7396.7 	 82
7396.8 	 76
7396.9 	 70
7397.0 	 64
7397.1 	 57
7397.3 	 0
8000.0 	 1
##ESI mass spectrum
##Adduct mass = -1.0079
600.6 	 17
600.7 	 25
600.8 	 24
642.1 	 13
642.2 	 18
642.3 	 15
654.9 	 29
655.0 	 39
655.1 	 57
655.2 	 87
655.3 	 116
655.4 	 99
655.5 	 66
655.6 	 39
655.7 	 29
655.8 	 16
669.6 	 18
669.7 	 94
669.8 	 191
669.9 	 242
670.0 	 256
670.1 	 294
670.2 	 340
670.3 	 333
670.4 	 216
670.5 	 108
670.6 	 62
670.7 	 62
670.8 	 47
670.9 	 30
671.0 	 21
671.1 	 16
671.2 	 16
671.3 	 16
686.6 	 14
686.7 	 13
712.6 	 9
712.7 	 39
712.8 	 61
712.9 	 40
713.0 	 9
714.8 	 2
715.6 	 2
715.7 	 10
715.8 	 19
715.9 	 13
716.0 	 5
716.2 	 5
716.3 	 6
716.4 	 3
717.4 	 2
717.5 	 11
717.6 	 82
717.7 	 185
717.8 	 252
717.9 	 202
718.0 	 138
718.1 	 103
718.2 	 90
718.3 	 53
718.4 	 19
718.5 	 2
722.8 	 2
736.6 	 6
736.7 	 37
736.8 	 86
736.9 	 116
737.0 	 116
737.1 	 163
737.2 	 259
737.3 	 321
737.4 	 232
737.5 	 119
737.6 	 73
737.7 	 88
737.8 	 69
737.9 	 29
738.0 	 3
739.7 	 4
739.8 	 6
739.9 	 4
740.2 	 6
740.3 	 9
740.4 	 6
753.4 	 97
753.6 	 1505
753.7 	 8758
753.8 	 18462
753.9 	 20615
754.0 	 15700
754.1 	 9094
754.2 	 5582
754.3 	 3366
754.4 	 1716
754.5 	 727
754.6 	 437
754.7 	 589
754.8 	 557
754.9 	 375
755.0 	 192
755.1 	 120
755.2 	 159
755.3 	 180
755.4 	 157
755.5 	 124
755.6 	 142
755.7 	 192
755.8 	 200
755.9 	 120
756.0 	 37
756.1 	 47
756.2 	 143
756.3 	 232
756.4 	 229
756.5 	 185
756.6 	 187
756.7 	 235
756.8 	 243
756.9 	 153
757.0 	 59
757.1 	 20
757.2 	 33
757.3 	 36
757.4 	 22
757.5 	 7
757.6 	 7
757.7 	 19
757.8 	 23
757.9 	 13
758.1 	 11
758.2 	 37
758.3 	 50
758.4 	 28
758.5 	 5
758.7 	 4
758.8 	 6
758.9 	 4
759.1 	 2
759.2 	 11
759.3 	 18
759.4 	 11
759.5 	 2
760.1 	 4
760.2 	 18
760.3 	 32
760.4 	 29
760.5 	 19
760.6 	 14
760.7 	 17
760.8 	 19
760.9 	 11
761.0 	 3
776.8 	 14
791.4 	 21
791.5 	 32
791.6 	 51
791.7 	 63
791.8 	 55
791.9 	 25
814.6 	 19
814.7 	 29
814.8 	 29
814.9 	 15
817.0 	 15
817.1 	 18
819.9 	 16
820.0 	 31
820.1 	 94
820.2 	 186
820.3 	 251
820.4 	 212
820.5 	 152
820.6 	 129
820.7 	 133
820.8 	 108
820.9 	 53
842.2 	 22
842.3 	 36
842.4 	 32
842.5 	 21
861.2 	 185
861.3 	 602
861.4 	 1181
861.5 	 1669
861.6 	 2432
861.7 	 3158
861.8 	 3267
861.9 	 2119
862.0 	 1007
862.1 	 499
862.2 	 521
862.3 	 390
862.4 	 213
862.5 	 86
862.6 	 51
862.7 	 67
862.8 	 53
862.9 	 28
863.2 	 21
863.3 	 28
863.4 	 20
863.8 	 17
863.9 	 13
864.2 	 14
864.3 	 37
864.4 	 56
864.5 	 60
864.6 	 60
864.7 	 67
864.8 	 72
864.9 	 60
865.0 	 42
865.1 	 36
865.2 	 36
865.3 	 29
865.4 	 13
904.7 	 14
904.8 	 23
904.9 	 17
983.3 	 13
1004.9 	 29
1005.0 	 41
1005.1 	 79
1005.2 	 141
1005.3 	 200
1005.4 	 194
1005.5 	 159
1005.6 	 147
1005.7 	 156
1005.8 	 137
1005.9 	 78
1006.0 	 32
1006.1 	 20
1006.2 	 30
1006.3 	 33
1006.4 	 24
1009.1 	 17
1009.2 	 18
1009.3 	 15
1206.1 	 15
1206.2 	 32
1206.3 	 45
1206.4 	 38
1206.5 	 28
1206.6 	 29
1206.7 	 39
1206.8 	 44
1206.9 	 37
1207.0 	 29
1207.1 	 24
1207.2 	 22
1207.3 	 16
