##Deconvoluted mass spectrum
1000.0 	 1
3879.5 	 0
3879.7 	 11
3879.8 	 14
3879.9 	 16
3880.0 	 19
3880.1 	 21
3880.2 	 24
3880.3 	 26
3880.4 	 28
3880.5 	 30
3880.6 	 32
3880.7 	 34
3880.8 	 36
3880.9 	 36
3881.0 	 34
3881.1 	 32
3881.2 	 30
3881.3 	 28
3881.4 	 26
3881.5 	 24
3881.6 	 21
3881.7 	 18
3881.8 	 16
3881.9 	 13
3882.0 	 10
3882.1 	 0
5249.3 	 0
5249.4 	 9
5249.5 	 10
5249.6 	 12
5249.7 	 13
5249.8 	 14
5249.9 	 16
5250.0 	 17
5250.1 	 20
5250.2 	 23
5250.3 	 26
5250.4 	 29
5250.5 	 33
5250.6 	 36
5250.7 	 39
5250.8 	 43
5250.9 	 46
5251.0 	 50
5251.1 	 53
5251.2 	 57
5251.3 	 60
5251.4 	 64
5251.5 	 67
5251.6 	 68
5251.7 	 70
5251.8 	 71
5251.9 	 73
5252.0 	 75
5252.1 	 76
5252.2 	 75
5252.3 	 71
5252.4 	 66
5252.5 	 62
5252.6 	 58
5252.7 	 54
5252.8 	 49
5252.9 	 45
5253.0 	 40
5253.1 	 35
5253.2 	 30
5253.3 	 25
5253.4 	 20
5253.5 	 16
5253.7 	 0
7868.3 	 0
7868.4 	 26
7868.5 	 25
7868.6 	 24
7868.7 	 23
7868.8 	 22
7868.9 	 21
7869.0 	 20
7869.1 	 20
7869.2 	 19
7869.3 	 18
7869.4 	 17
7869.5 	 16
7869.6 	 16
7869.7 	 16
7869.8 	 15
7869.9 	 15
7870.0 	 15
7873.4 	 9
7873.5 	 9
7873.6 	 8
7873.7 	 8
7873.8 	 8
7873.9 	 8
7874.0 	 8
7874.1 	 9
7874.2 	 9
7874.3 	 9
7874.4 	 10
7877.8 	 20
7877.9 	 20
7878.0 	 20
7878.1 	 20
7878.2 	 21
7878.3 	 21
7878.4 	 23
7878.5 	 24
7878.6 	 26
7878.7 	 28
7878.8 	 29
7878.9 	 31
7879.0 	 33
7879.1 	 34
7879.2 	 36
7879.3 	 38
7879.4 	 39
7879.5 	 38
7879.6 	 38
7879.7 	 37
7879.8 	 36
7879.9 	 35
7880.0 	 34
7880.1 	 34
7880.2 	 33
7880.3 	 32
7880.4 	 32
7880.5 	 31
7880.6 	 29
7880.7 	 28
7880.8 	 26
7880.9 	 24
7881.0 	 23
7881.1 	 21
7881.2 	 19
7881.3 	 18
7881.4 	 16
7881.5 	 14
7881.7 	 0
7882.0 	 0
7882.1 	 6
7882.2 	 6
7882.3 	 6
7882.4 	 6
7882.5 	 6
7882.6 	 6
7882.7 	 7
7882.8 	 7
7882.9 	 7
7883.0 	 7
7883.2 	 0
7923.6 	 0
7931.5 	 16
7931.6 	 15
7931.7 	 15
7931.8 	 15
7931.9 	 14
7932.0 	 14
7932.1 	 14
7932.2 	 14
7932.3 	 14
7932.4 	 14
7932.5 	 14
7932.6 	 14
7932.7 	 14
7932.8 	 14
7932.9 	 14
7933.0 	 14
7933.1 	 14
7933.2 	 14
7933.3 	 31
7933.4 	 33
7933.5 	 35
7933.6 	 36
7933.7 	 38
7933.8 	 40
7933.9 	 41
7934.0 	 43
7934.1 	 45
7934.2 	 46
7934.3 	 48
7934.4 	 50
7934.5 	 49
7934.6 	 49
7934.7 	 49
7934.8 	 48
7934.9 	 48
7935.0 	 48
7935.1 	 48
7935.2 	 47
7935.3 	 47
7935.4 	 47
7935.5 	 46
7935.6 	 45
7935.7 	 44
7935.8 	 42
7935.9 	 40
7936.0 	 38
7936.1 	 36
7936.2 	 34
7936.3 	 33
7936.4 	 31
7936.5 	 29
7936.6 	 27
7936.7 	 27
7936.8 	 26
7936.9 	 25
7937.0 	 25
7937.1 	 24
7937.2 	 24
7937.3 	 23
7937.4 	 22
7937.5 	 22
7937.6 	 21
7937.7 	 21
7937.8 	 22
7937.9 	 23
7938.0 	 24
7938.1 	 25
7938.2 	 26
7938.3 	 28
7938.4 	 29
7938.5 	 30
7938.6 	 31
7938.7 	 32
7938.8 	 33
7938.9 	 34
7939.0 	 35
7939.1 	 36
7939.2 	 37
7939.3 	 30
7939.4 	 32
7939.5 	 33
7939.6 	 34
7939.7 	 36
7939.8 	 37
7939.9 	 38
7940.0 	 37
7940.1 	 36
7940.2 	 34
7940.3 	 33
7940.4 	 32
7940.5 	 31
7940.6 	 30
7940.7 	 28
7940.8 	 27
7940.9 	 26
7941.0 	 25
7941.1 	 24
7941.2 	 24
7941.3 	 24
7941.4 	 23
7941.5 	 23
7943.8 	 12
7943.9 	 12
7944.0 	 11
7944.1 	 11
7944.2 	 10
7944.3 	 10
7944.4 	 11
7944.5 	 12
7944.6 	 13
7944.7 	 13
7944.8 	 14
7944.9 	 15
7945.0 	 16
7945.1 	 17
7945.2 	 18
7945.3 	 18
7945.4 	 19
7945.5 	 19
7945.6 	 19
7945.7 	 19
7945.8 	 19
7945.9 	 20
7946.0 	 20
7946.1 	 20
7946.2 	 20
7946.3 	 20
7946.4 	 20
7946.5 	 20
7946.6 	 20
7946.7 	 19
7946.8 	 19
7946.9 	 18
7947.0 	 18
7947.1 	 17
7947.2 	 17
7947.3 	 16
7947.4 	 16
7947.5 	 15
7947.6 	 15
7947.7 	 15
7947.8 	 15
7947.9 	 15
7948.0 	 15
7948.1 	 15
7948.2 	 15
7948.3 	 15
7948.4 	 15
7948.5 	 15
7948.6 	 15
7948.7 	 15
7948.8 	 15
7948.9 	 16
7949.0 	 16
7949.1 	 16
7949.2 	 17
7949.3 	 17
7949.4 	 18
7949.5 	 18
7949.6 	 18
7949.7 	 19
7949.8 	 19
7949.9 	 19
7950.0 	 19
7950.1 	 19
7950.2 	 19
7950.3 	 19
7950.4 	 19
7950.5 	 19
7950.6 	 19
7950.7 	 19
7950.8 	 19
7951.0 	 0
8535.6 	 0
8535.7 	 8
8535.8 	 14
8535.9 	 20
8536.0 	 48
8536.1 	 73
8536.2 	 92
8536.3 	 112
8536.4 	 131
8536.5 	 150
8536.6 	 170
8536.7 	 189
8536.8 	 208
8536.9 	 230
8537.0 	 286
8537.1 	 343
8537.2 	 447
8537.3 	 536
8537.4 	 638
8537.5 	 402
8537.6 	 453
8537.7 	 519
8537.8 	 572
8537.9 	 625
8538.0 	 685
8538.1 	 738
8538.2 	 789
8538.3 	 841
8538.4 	 897
8538.5 	 954
8538.6 	 1031
8538.7 	 1963
8538.8 	 2084
8538.9 	 2204
8539.0 	 2324
8539.1 	 2443
8539.2 	 2560
8539.3 	 2684
8539.4 	 2946
8539.5 	 3196
8539.6 	 3445
8539.7 	 3694
8539.8 	 3944
8539.9 	 4206
8540.0 	 4467
8540.1 	 4730
8540.2 	 4994
8540.3 	 5257
8540.4 	 5520
8540.5 	 5781
8540.6 	 6012
8540.7 	 6242
8540.8 	 6474
8540.9 	 6706
8541.0 	 6938
8541.1 	 7170
8541.2 	 7424
8541.3 	 7678
8541.4 	 7933
8541.5 	 8186
8541.6 	 8440
8541.7 	 8679
8541.8 	 8690
8541.9 	 8700
8542.0 	 8710
8542.1 	 8720
8542.2 	 8729
8542.3 	 8736
8542.4 	 8743
8542.5 	 8722
8542.6 	 8698
8542.7 	 8674
8542.8 	 8653
8542.9 	 8625
8543.0 	 8504
8543.1 	 8382
8543.2 	 8256
8543.3 	 8130
8543.4 	 8004
8543.5 	 7878
8543.6 	 7753
8543.7 	 7628
8543.8 	 7433
8543.9 	 7230
8544.0 	 7028
8544.1 	 6828
8544.2 	 6670
8544.3 	 6512
8544.4 	 6351
8544.5 	 6190
8544.6 	 6028
8544.7 	 5867
8544.8 	 5706
8544.9 	 5545
8545.0 	 5381
8545.1 	 5128
8545.2 	 4874
8545.3 	 4626
8545.4 	 4466
8545.5 	 4306
8545.6 	 4146
8545.7 	 3979
8545.8 	 3819
8545.9 	 3659
8546.0 	 3500
8546.1 	 3345
8546.2 	 3191
8546.3 	 3038
8546.4 	 2905
8546.5 	 2772
8546.6 	 2640
8546.7 	 2508
8546.8 	 2376
8546.9 	 2245
8547.0 	 2113
8547.1 	 1982
8547.2 	 1857
8547.3 	 1726
8547.4 	 1602
8547.5 	 1478
8547.6 	 1353
8547.7 	 1284
8547.8 	 1222
8547.9 	 1159
8548.0 	 1096
8548.1 	 1034
8548.2 	 972
8548.3 	 905
8548.4 	 847
8548.5 	 788
8548.6 	 732
8548.7 	 676
8548.8 	 620
8548.9 	 564
8549.0 	 556
8549.1 	 549
8549.2 	 543
8549.3 	 537
8549.4 	 530
8549.5 	 522
8549.6 	 506
8549.7 	 498
8549.8 	 491
8549.9 	 483
8550.0 	 476
8550.1 	 469
8550.2 	 473
8550.3 	 466
8550.4 	 458
8550.5 	 450
8550.6 	 442
8550.7 	 434
8550.8 	 426
8550.9 	 418
8551.0 	 410
8551.1 	 402
8551.2 	 394
8551.3 	 387
8551.4 	 385
8551.5 	 371
8551.6 	 369
8551.7 	 367
8551.8 	 364
8551.9 	 362
8552.0 	 360
8552.1 	 358
8552.2 	 355
8552.3 	 353
8552.4 	 351
8552.5 	 349
8552.6 	 350
8552.7 	 344
8552.8 	 331
8552.9 	 327
8553.0 	 323
8553.1 	 312
8553.2 	 308
8553.3 	 304
8553.4 	 300
8553.5 	 296
8553.6 	 291
8553.7 	 113
8553.8 	 108
8553.9 	 102
8554.0 	 97
8554.1 	 91
8554.2 	 90
8554.3 	 253
8554.4 	 248
8554.5 	 243
8554.6 	 239
8554.7 	 234
8554.8 	 229
8554.9 	 225
8555.0 	 220
8555.1 	 214
8555.2 	 209
8555.3 	 203
8555.4 	 185
8555.5 	 182
8555.6 	 180
8555.7 	 177
8555.8 	 175
8555.9 	 187
8556.0 	 184
8556.1 	 182
8556.2 	 183
8556.3 	 184
8556.4 	 184
8556.5 	 185
8556.6 	 186
8556.7 	 187
8556.8 	 83
8556.9 	 82
8557.0 	 80
8557.1 	 79
8557.2 	 77
8557.3 	 76
8557.4 	 189
8557.5 	 193
8557.6 	 197
8557.7 	 202
8557.8 	 206
8557.9 	 210
8558.0 	 214
8558.1 	 216
8558.2 	 219
8558.3 	 222
8558.4 	 225
8558.5 	 228
8558.6 	 238
8558.7 	 241
8558.8 	 245
8558.9 	 249
8559.0 	 253
8559.1 	 257
8559.2 	 261
8559.3 	 266
8559.4 	 270
8559.5 	 275
8559.6 	 280
8559.7 	 284
8559.8 	 286
8559.9 	 288
8560.0 	 289
8560.1 	 291
8560.2 	 293
8560.3 	 295
8560.4 	 297
8560.5 	 298
8560.6 	 300
8560.7 	 305
8560.8 	 310
8560.9 	 329
8561.0 	 334
8561.1 	 338
8561.2 	 343
8561.3 	 348
8561.4 	 352
8561.5 	 356
8561.6 	 360
8561.7 	 363
8561.8 	 366
8561.9 	 369
8562.0 	 374
8562.1 	 379
8562.2 	 386
8562.3 	 394
8562.4 	 402
8562.5 	 409
8562.6 	 416
8562.7 	 422
8562.8 	 428
8562.9 	 434
8563.0 	 440
8563.1 	 446
8563.2 	 457
8563.3 	 460
8563.4 	 465
8563.5 	 470
8563.6 	 475
8563.7 	 481
8563.8 	 487
8563.9 	 493
8564.0 	 499
8564.1 	 506
8564.2 	 512
8564.3 	 517
8564.4 	 524
8564.5 	 529
8564.6 	 526
8564.7 	 523
8564.8 	 520
8564.9 	 518
8565.0 	 515
8565.1 	 513
8565.2 	 510
8565.3 	 501
8565.4 	 499
8565.5 	 496
8565.6 	 494
8565.7 	 491
8565.8 	 480
8565.9 	 467
8566.0 	 455
8566.1 	 437
8566.2 	 425
8566.3 	 414
8566.4 	 401
8566.5 	 389
8566.6 	 376
8566.7 	 364
8566.8 	 351
8566.9 	 338
8567.0 	 324
8567.1 	 310
8567.2 	 288
8567.3 	 271
8567.4 	 260
8567.5 	 249
8567.6 	 239
8567.7 	 228
8567.8 	 217
8567.9 	 207
8568.0 	 196
8568.1 	 187
8568.2 	 181
8568.3 	 176
8568.4 	 170
8568.5 	 167
8568.6 	 143
8568.7 	 140
8568.8 	 137
8568.9 	 135
8569.0 	 132
8569.1 	 130
8569.2 	 127
8569.3 	 124
8569.4 	 125
8569.5 	 126
8569.6 	 127
8569.7 	 128
8569.8 	 127
8569.9 	 127
8570.0 	 126
8570.1 	 126
8570.2 	 126
8570.3 	 125
8570.4 	 125
8570.5 	 124
8570.6 	 123
8570.7 	 121
8570.8 	 120
8570.9 	 118
8571.0 	 117
8571.1 	 114
8571.2 	 111
8571.3 	 108
8571.4 	 105
8571.5 	 102
8571.6 	 99
8571.7 	 96
8571.8 	 93
8571.9 	 99
8572.0 	 95
8572.1 	 92
8572.2 	 88
8572.3 	 84
8572.4 	 83
8572.5 	 82
8572.6 	 81
8572.7 	 80
8572.8 	 80
8572.9 	 79
8573.0 	 41
8573.1 	 40
8573.2 	 40
8573.3 	 40
8573.4 	 40
8573.5 	 40
8573.6 	 39
8573.7 	 39
8573.8 	 39
8573.9 	 38
8574.0 	 38
8574.1 	 38
8574.2 	 38
8574.3 	 39
8574.4 	 40
8574.5 	 40
8574.6 	 40
8574.7 	 41
8574.8 	 42
8574.9 	 42
8575.0 	 42
8575.1 	 43
8575.2 	 44
8575.3 	 44
8575.4 	 45
8575.5 	 45
8575.6 	 76
8575.7 	 76
8575.8 	 77
8575.9 	 78
8576.0 	 78
8576.1 	 79
8576.2 	 79
8576.3 	 88
8576.4 	 90
8576.5 	 92
8576.6 	 93
8576.7 	 95
8576.8 	 96
8576.9 	 99
8577.0 	 101
8577.1 	 103
8577.2 	 105
8577.3 	 107
8577.4 	 109
8577.5 	 112
8577.6 	 61
8577.7 	 12
8577.8 	 12
8578.0 	 0
10500.0 	 1
##ESI mass spectrum
##Adduct mass = -1.0079
608.8 	 12
608.9 	 28
609.0 	 44
609.1 	 78
609.2 	 116
609.3 	 136
609.4 	 100
609.5 	 52
609.6 	 22
609.7 	 18
609.8 	 15
609.9 	 8
645.6 	 10
645.7 	 25
645.8 	 37
645.9 	 25
646.0 	 9
647.2 	 6
647.3 	 11
647.4 	 9
655.6 	 13
655.7 	 135
655.8 	 454
655.9 	 1052
656.0 	 1812
656.1 	 2846
656.2 	 3515
656.3 	 3257
656.4 	 1819
656.5 	 649
656.6 	 209
656.7 	 294
656.8 	 241
656.9 	 162
657.0 	 91
657.1 	 73
657.2 	 102
657.3 	 117
657.4 	 101
657.5 	 85
657.6 	 114
657.7 	 170
657.8 	 200
657.9 	 153
658.0 	 95
658.1 	 68
658.2 	 73
658.3 	 62
658.4 	 31
658.7 	 30
658.8 	 51
658.9 	 41
659.0 	 17
659.1 	 8
659.2 	 20
659.3 	 30
659.4 	 22
659.5 	 7
659.7 	 8
659.8 	 16
659.9 	 17
660.0 	 14
660.1 	 14
660.2 	 19
660.3 	 22
660.4 	 17
660.5 	 12
660.6 	 7
665.2 	 20
665.3 	 27
665.4 	 15
665.8 	 7
666.0 	 7
666.1 	 11
666.2 	 10
683.3 	 6
683.4 	 6
684.8 	 8
686.5 	 16
686.6 	 51
686.7 	 99
686.8 	 131
686.9 	 102
687.0 	 53
687.1 	 20
687.2 	 12
688.7 	 8
688.8 	 13
688.9 	 8
699.2 	 7
699.3 	 20
699.4 	 31
699.5 	 36
699.6 	 41
699.7 	 49
699.8 	 51
699.9 	 33
700.0 	 12
710.3 	 8
710.4 	 78
710.6 	 1111
710.7 	 3430
710.8 	 5493
710.9 	 4667
711.0 	 2689
711.1 	 1229
711.2 	 891
711.3 	 560
711.4 	 295
711.5 	 137
711.6 	 107
711.7 	 159
711.8 	 174
711.9 	 136
712.0 	 79
712.1 	 65
712.2 	 109
712.3 	 166
712.4 	 187
712.5 	 182
712.6 	 209
712.7 	 258
712.8 	 265
712.9 	 175
713.0 	 89
713.1 	 53
713.2 	 58
713.3 	 51
713.4 	 41
713.5 	 38
713.6 	 44
713.7 	 51
713.8 	 50
713.9 	 36
714.0 	 24
714.1 	 21
714.2 	 26
714.3 	 26
714.4 	 16
714.8 	 8
715.2 	 21
715.3 	 39
715.4 	 31
715.5 	 13
719.2 	 10
719.3 	 16
719.4 	 11
720.2 	 17
720.3 	 31
720.4 	 25
720.5 	 9
720.6 	 7
720.7 	 24
720.8 	 38
720.9 	 25
721.2 	 10
721.3 	 19
721.4 	 20
721.5 	 15
721.6 	 15
721.7 	 19
721.8 	 19
721.9 	 10
722.7 	 13
722.8 	 21
722.9 	 14
723.2 	 7
723.3 	 7
723.7 	 7
723.8 	 11
723.9 	 7
748.9 	 8
749.0 	 18
749.1 	 41
749.2 	 66
749.3 	 77
749.4 	 47
749.5 	 13
763.1 	 9
763.2 	 20
763.3 	 26
763.4 	 15
764.3 	 10
764.4 	 7
765.2 	 6
765.3 	 9
765.4 	 6
770.3 	 9
770.4 	 9
770.5 	 7
775.1 	 44
775.2 	 218
775.3 	 447
775.4 	 518
775.5 	 471
775.6 	 414
775.7 	 380
775.8 	 294
775.9 	 149
776.0 	 51
776.1 	 20
776.2 	 32
776.3 	 26
776.4 	 13
776.7 	 9
776.8 	 15
776.9 	 12
777.0 	 6
777.1 	 10
777.2 	 23
777.3 	 31
777.4 	 27
777.5 	 19
777.6 	 23
777.7 	 35
777.8 	 40
777.9 	 24
778.3 	 7
778.7 	 6
778.8 	 13
778.9 	 11
779.3 	 6
779.4 	 6
787.2 	 6
787.3 	 7
790.0 	 6
792.8 	 6
794.9 	 8
795.0 	 10
795.1 	 16
795.2 	 24
795.3 	 30
795.4 	 25
795.5 	 17
795.6 	 13
795.7 	 10
804.7 	 6
804.8 	 10
804.9 	 7
847.3 	 7
847.4 	 7
848.2 	 8
848.3 	 9
852.6 	 9
852.7 	 50
852.8 	 109
852.9 	 143
853.0 	 150
853.1 	 157
853.2 	 171
853.3 	 174
853.4 	 128
853.5 	 76
853.6 	 43
853.7 	 34
853.8 	 20
853.9 	 9
854.3 	 6
854.9 	 6
855.0 	 6
855.1 	 9
855.2 	 15
855.3 	 23
855.4 	 20
855.5 	 13
855.6 	 6
858.2 	 9
858.3 	 9
888.7 	 6
888.8 	 8
888.9 	 6
904.2 	 9
904.3 	 9
936.4 	 6
947.6 	 11
947.7 	 38
947.8 	 73
947.9 	 84
948.0 	 78
948.1 	 75
948.2 	 75
948.3 	 63
948.4 	 36
948.5 	 17
948.6 	 11
948.7 	 12
948.8 	 9
950.2 	 8
950.3 	 17
950.4 	 21
950.5 	 20
950.6 	 18
950.7 	 19
950.8 	 18
950.9 	 11
964.8 	 7
964.9 	 6
1049.5 	 7
1049.6 	 6
1066.2 	 15
1066.3 	 34
1066.4 	 47
1066.5 	 52
1066.6 	 64
1066.7 	 79
1066.8 	 79
1066.9 	 54
1067.0 	 29
1067.1 	 19
1067.2 	 20
1067.3 	 15
1067.4 	 6
1069.1 	 6
1069.2 	 11
1069.3 	 13
1069.4 	 9
1069.5 	 6
1069.6 	 6
1069.7 	 8
1069.8 	 8
1069.9 	 6
1083.2 	 6
1099.2 	 6
1099.3 	 6
1110.3 	 6
1218.7 	 7
1218.8 	 13
1218.9 	 14
1219.0 	 14
1219.1 	 20
1219.2 	 32
1219.3 	 38
1219.4 	 29
1219.5 	 16
1219.6 	 11
1219.7 	 10
1219.8 	 8
1222.3 	 6
1222.4 	 7
1222.5 	 8
1222.6 	 7
