##Deconvoluted mass spectrum
1000.0 	 1
6715.8 	 0
6715.9 	 22
6716.0 	 36
6716.1 	 92
6716.2 	 122
6716.3 	 153
6716.4 	 184
6716.5 	 232
6716.6 	 281
6716.7 	 321
6716.8 	 379
6716.9 	 709
6717.0 	 925
6717.1 	 1145
6717.2 	 1373
6717.3 	 1604
6717.4 	 1839
6717.5 	 2074
6717.6 	 2309
6717.7 	 2584
6717.8 	 2937
6717.9 	 3290
6718.0 	 3643
6718.1 	 3996
6718.2 	 4346
6718.3 	 4697
6718.4 	 5047
6718.5 	 5372
6718.6 	 5843
6718.7 	 6698
6718.8 	 7546
6718.9 	 8392
6719.0 	 9235
6719.1 	 10076
6719.2 	 10910
6719.3 	 11711
6719.4 	 12454
6719.5 	 13273
6719.6 	 14292
6719.7 	 15311
6719.8 	 16331
6719.9 	 17350
6720.0 	 18369
6720.1 	 19379
6720.2 	 20375
6720.3 	 21372
6720.4 	 22224
6720.5 	 22717
6720.6 	 23210
6720.7 	 23705
6720.8 	 24202
6720.9 	 24695
6721.0 	 25177
6721.1 	 25659
6721.2 	 26143
6721.3 	 26251
6721.4 	 25433
6721.5 	 24613
6721.6 	 23793
6721.7 	 22955
6721.8 	 22070
6721.9 	 21198
6722.0 	 20323
6722.1 	 19443
6722.2 	 18495
6722.3 	 17435
6722.4 	 16375
6722.5 	 15295
6722.6 	 14180
6722.7 	 13066
6722.8 	 11965
6722.9 	 10851
6723.0 	 9739
6723.1 	 8760
6723.2 	 8092
6723.3 	 7440
6723.4 	 6815
6723.5 	 6190
6723.6 	 5553
6723.7 	 4935
6723.8 	 4318
6723.9 	 3701
6724.0 	 3227
6724.1 	 3130
6724.2 	 3072
6724.3 	 3016
6724.4 	 2961
6724.5 	 2906
6724.6 	 2851
6724.7 	 2796
6724.8 	 2742
6724.9 	 2657
6725.0 	 2557
6725.1 	 2462
6725.2 	 2390
6725.3 	 2317
6725.4 	 2244
6725.5 	 2171
6725.6 	 2098
6725.7 	 2019
6725.8 	 1930
6725.9 	 1841
6726.0 	 1753
6726.1 	 1670
6726.2 	 1607
6726.3 	 1545
6726.4 	 1457
6726.5 	 1396
6726.6 	 1334
6726.7 	 1274
6726.8 	 1223
6726.9 	 1171
6727.0 	 1120
6727.1 	 1068
6727.2 	 1010
6727.3 	 954
6727.4 	 898
6727.5 	 842
6727.6 	 794
6727.7 	 764
6727.8 	 735
6727.9 	 705
6728.0 	 675
6728.1 	 568
6728.2 	 543
6728.3 	 519
6728.4 	 495
6728.5 	 548
6728.6 	 542
6728.7 	 536
6728.8 	 530
6728.9 	 525
6729.0 	 523
6729.1 	 521
6729.2 	 520
6729.3 	 520
6729.4 	 518
6729.5 	 511
6729.6 	 504
6729.7 	 496
6729.8 	 486
6729.9 	 476
6730.0 	 466
6730.1 	 457
6730.2 	 452
6730.3 	 125
6730.4 	 121
6730.5 	 117
6730.6 	 111
6730.7 	 105
6730.8 	 374
6730.9 	 359
6731.0 	 345
6731.1 	 330
6731.2 	 318
6731.3 	 306
6731.4 	 298
6731.5 	 289
6731.6 	 280
6731.7 	 244
6731.8 	 235
6731.9 	 226
6732.0 	 217
6732.1 	 210
6732.2 	 209
6732.3 	 207
6732.4 	 205
6732.5 	 203
6732.6 	 201
6732.7 	 199
6732.8 	 197
6732.9 	 195
6733.0 	 196
6733.1 	 151
6733.2 	 159
6733.3 	 168
6733.4 	 176
6733.5 	 185
6733.6 	 233
6733.7 	 270
6733.8 	 277
6733.9 	 284
6734.0 	 289
6734.1 	 294
6734.2 	 301
6734.3 	 308
6734.4 	 65
6734.5 	 65
6734.6 	 38
6734.7 	 37
6734.8 	 309
6734.9 	 302
6735.0 	 296
6735.1 	 290
6735.2 	 284
6735.3 	 278
6735.4 	 271
6735.5 	 265
6735.6 	 258
6735.7 	 250
6735.8 	 239
6735.9 	 228
6736.0 	 218
6736.1 	 207
6736.2 	 197
6736.3 	 187
6736.4 	 178
6736.5 	 168
6736.6 	 177
6736.7 	 174
6736.8 	 171
6736.9 	 168
6737.0 	 167
6737.1 	 167
6737.2 	 166
6737.3 	 166
6737.4 	 166
6737.5 	 169
6737.6 	 178
6737.7 	 188
6737.8 	 198
6737.9 	 208
6738.0 	 218
6738.1 	 229
6738.2 	 238
6738.3 	 248
6738.4 	 258
6738.5 	 268
6738.6 	 258
6738.7 	 268
6738.8 	 278
6738.9 	 287
6739.0 	 297
6739.1 	 307
6739.2 	 316
6739.3 	 324
6739.4 	 325
6739.5 	 327
6739.6 	 328
6739.7 	 330
6739.8 	 332
6739.9 	 334
6740.0 	 335
6740.1 	 338
6740.2 	 341
6740.3 	 343
6740.4 	 344
6740.5 	 346
6740.6 	 347
6740.7 	 349
6740.8 	 351
6740.9 	 352
6741.0 	 355
6741.1 	 359
6741.2 	 367
6741.3 	 376
6741.4 	 384
6741.5 	 392
6741.6 	 416
6741.7 	 423
6741.8 	 446
6741.9 	 452
6742.0 	 459
6742.1 	 468
6742.2 	 477
6742.3 	 486
6742.4 	 496
6742.5 	 503
6742.6 	 506
6742.7 	 508
6742.8 	 511
6742.9 	 512
6743.0 	 507
6743.1 	 503
6743.2 	 497
6743.3 	 490
6743.4 	 484
6743.5 	 477
6743.6 	 471
6743.7 	 465
6743.8 	 454
6743.9 	 418
6744.0 	 398
6744.1 	 359
6744.2 	 344
6744.3 	 329
6744.4 	 314
6744.5 	 299
6744.6 	 284
6744.7 	 270
6744.8 	 256
6744.9 	 242
6745.0 	 231
6745.1 	 219
6745.2 	 208
6745.3 	 196
6745.4 	 185
6745.5 	 174
6745.6 	 164
6745.7 	 160
6745.8 	 154
6745.9 	 148
6746.0 	 142
6746.1 	 137
6746.2 	 131
6746.3 	 126
6746.4 	 120
6746.5 	 116
6746.6 	 114
6746.7 	 113
6746.8 	 112
6746.9 	 111
6747.0 	 110
6747.1 	 109
6747.2 	 108
6747.3 	 108
6747.4 	 107
6747.5 	 105
6747.6 	 103
6747.7 	 80
6747.8 	 78
6747.9 	 76
6748.0 	 74
6748.1 	 73
6748.2 	 71
6748.3 	 69
6748.4 	 65
6748.5 	 62
6748.6 	 58
6748.7 	 54
6748.8 	 51
6748.9 	 47
6749.0 	 43
6749.1 	 40
6749.2 	 36
6749.3 	 49
6749.4 	 45
6749.5 	 41
6749.6 	 38
6749.7 	 18
6749.8 	 14
6749.9 	 10
6750.0 	 7
6750.1 	 4
6750.2 	 6
6750.3 	 8
6750.4 	 9
6750.5 	 11
6750.6 	 12
6750.7 	 14
6750.8 	 15
6750.9 	 17
6751.0 	 20
6751.1 	 26
6751.2 	 32
6751.3 	 37
6751.4 	 43
6751.5 	 49
6751.6 	 55
6751.7 	 61
6751.8 	 67
6751.9 	 73
6752.0 	 78
6752.1 	 84
6752.2 	 89
6752.3 	 94
6752.4 	 100
6752.5 	 105
6752.6 	 111
6752.7 	 116
6752.9 	 0
8069.6 	 0
8069.7 	 12
8069.8 	 14
8069.9 	 17
8070.0 	 19
8070.1 	 21
8070.2 	 23
8070.3 	 25
8070.4 	 28
8070.5 	 30
8070.6 	 32
8070.7 	 34
8070.8 	 36
8070.9 	 38
8071.0 	 40
8071.1 	 42
8071.2 	 45
8071.3 	 47
8071.4 	 49
8071.5 	 51
8071.6 	 53
8071.7 	 55
8071.8 	 57
8071.9 	 59
8072.0 	 58
8072.1 	 57
8072.2 	 56
8072.3 	 55
8072.4 	 54
8072.5 	 53
8072.6 	 52
8072.7 	 52
8072.8 	 51
8072.9 	 50
8073.0 	 49
8073.1 	 47
8073.2 	 44
8073.3 	 42
8073.4 	 40
8073.5 	 38
8073.6 	 36
8073.7 	 34
8073.8 	 32
8073.9 	 30
8074.0 	 28
8074.1 	 26
8074.2 	 24
8074.3 	 22
8074.4 	 20
8074.5 	 18
8074.6 	 16
8074.7 	 14
8074.8 	 12
8074.9 	 10
8075.0 	 9
8075.1 	 7
8075.2 	 5
8075.3 	 5
8075.4 	 5
8075.5 	 4
8075.6 	 4
8075.7 	 4
8075.8 	 4
8075.9 	 4
8076.0 	 4
8076.1 	 3
8076.2 	 3
8076.3 	 3
8076.4 	 3
8076.5 	 3
8076.6 	 3
8076.7 	 3
8076.8 	 3
8076.9 	 3
8077.0 	 3
8077.1 	 3
8077.2 	 3
8077.3 	 3
8077.4 	 3
8077.5 	 3
8077.6 	 3
8077.7 	 3
8077.8 	 3
8077.9 	 3
8078.0 	 3
8078.1 	 3
8078.2 	 3
8078.3 	 3
8078.4 	 3
8078.6 	 0
8700.0 	 1
##ESI mass spectrum
##Adduct mass = -1.0079
657.7 	 14
657.8 	 21
657.9 	 20
658.0 	 18
658.1 	 16
658.2 	 13
670.6 	 38
670.7 	 205
670.8 	 475
670.9 	 715
671.0 	 877
671.1 	 1178
671.2 	 1512
671.3 	 1575
671.4 	 1048
671.5 	 512
671.6 	 255
671.7 	 260
671.8 	 204
671.9 	 125
672.0 	 66
672.1 	 50
672.2 	 61
672.3 	 53
672.4 	 28
672.7 	 15
672.8 	 20
673.2 	 15
673.3 	 22
673.4 	 22
673.5 	 23
673.6 	 19
730.6 	 14
730.7 	 80
730.8 	 156
730.9 	 161
731.0 	 124
731.1 	 107
731.2 	 114
731.3 	 93
731.4 	 40
731.5 	 5
732.6 	 12
732.7 	 36
732.8 	 59
732.9 	 49
733.0 	 26
733.1 	 5
733.2 	 3
733.3 	 3
733.4 	 3
745.2 	 18
745.3 	 144
745.4 	 822
745.5 	 2005
745.6 	 8381
745.7 	 17314
745.8 	 21714
745.9 	 14406
746.0 	 5721
746.1 	 1532
746.2 	 1805
746.3 	 1313
746.4 	 829
746.5 	 451
746.6 	 305
746.7 	 342
746.8 	 322
746.9 	 241
747.0 	 150
747.1 	 140
747.2 	 216
747.3 	 274
747.4 	 227
747.5 	 141
747.6 	 119
747.7 	 179
747.8 	 251
747.9 	 266
748.0 	 259
748.1 	 304
748.2 	 374
748.3 	 378
748.4 	 253
748.5 	 134
748.6 	 81
748.7 	 85
748.8 	 70
748.9 	 37
749.0 	 4
749.1 	 18
749.2 	 71
749.3 	 120
749.4 	 112
749.5 	 88
749.6 	 78
749.7 	 86
749.8 	 77
749.9 	 41
750.0 	 8
750.2 	 10
750.3 	 16
750.4 	 10
750.5 	 2
751.1 	 6
751.2 	 28
751.3 	 48
751.4 	 42
751.5 	 36
751.6 	 57
751.7 	 86
751.8 	 82
751.9 	 41
752.0 	 7
752.3 	 2
758.8 	 17
759.7 	 13
759.8 	 20
759.9 	 13
797.7 	 25
797.8 	 43
797.9 	 34
798.0 	 17
798.2 	 20
798.3 	 18
799.7 	 13
799.8 	 25
799.9 	 20
802.7 	 13
802.8 	 28
802.9 	 30
803.0 	 24
803.1 	 14
822.1 	 18
822.2 	 49
822.3 	 74
822.4 	 58
822.5 	 32
822.6 	 18
822.7 	 15
823.8 	 18
823.9 	 13
824.2 	 21
824.3 	 32
824.4 	 20
824.7 	 20
824.8 	 29
824.9 	 18
825.8 	 16
832.2 	 16
832.3 	 15
838.6 	 186
838.7 	 1106
838.8 	 2511
838.9 	 3372
839.0 	 3530
839.1 	 3369
839.2 	 3061
839.3 	 2364
839.4 	 1233
839.5 	 452
839.6 	 190
839.7 	 262
839.8 	 222
839.9 	 144
840.0 	 80
840.1 	 63
840.2 	 74
840.3 	 59
840.4 	 26
840.7 	 31
840.8 	 39
840.9 	 32
841.0 	 21
841.1 	 19
841.2 	 34
841.3 	 59
841.4 	 72
841.5 	 72
841.6 	 91
841.7 	 117
841.8 	 116
841.9 	 68
842.0 	 27
842.1 	 19
842.2 	 33
842.3 	 35
842.4 	 23
842.7 	 16
842.8 	 21
842.9 	 16
845.8 	 14
857.3 	 20
857.4 	 17
942.3 	 14
958.5 	 13
958.6 	 66
958.7 	 168
958.8 	 272
958.9 	 284
959.0 	 243
959.1 	 211
959.2 	 203
959.3 	 177
959.4 	 115
959.5 	 69
959.6 	 57
959.7 	 67
959.8 	 56
959.9 	 28
962.1 	 18
962.2 	 26
962.3 	 28
962.4 	 17
1118.4 	 17
1118.5 	 28
1118.6 	 47
1118.7 	 74
1118.8 	 101
1118.9 	 100
1119.0 	 82
1119.1 	 77
1119.2 	 93
1119.3 	 100
1119.4 	 69
1119.5 	 34
1119.6 	 20
1119.7 	 23
1119.8 	 21
1342.7 	 20
1342.8 	 29
1342.9 	 29
1343.0 	 27
1343.1 	 26
1343.2 	 23
1343.3 	 18
1343.6 	 14
1343.7 	 15
