##Deconvoluted mass spectrum
1000.0 	 1
3263.4 	 0
3263.6 	 13
3263.7 	 14
3263.8 	 16
3263.9 	 17
3264.0 	 18
3264.1 	 18
3264.2 	 17
3264.3 	 15
3264.4 	 14
3264.5 	 13
3264.6 	 0
4080.5 	 0
4080.7 	 14
4080.8 	 19
4080.9 	 25
4081.0 	 30
4081.1 	 36
4081.2 	 41
4081.3 	 48
4081.4 	 55
4081.5 	 62
4081.6 	 69
4081.7 	 76
4081.8 	 84
4081.9 	 88
4082.0 	 90
4082.1 	 92
4082.2 	 94
4082.3 	 96
4082.4 	 98
4082.5 	 97
4082.6 	 94
4082.7 	 91
4082.8 	 88
4082.9 	 85
4083.0 	 82
4083.1 	 81
4083.2 	 80
4083.3 	 79
4083.4 	 78
4083.5 	 77
4083.6 	 76
4083.7 	 78
4083.8 	 82
4083.9 	 85
4084.0 	 89
4084.1 	 93
4084.2 	 96
4084.3 	 99
4084.4 	 101
4084.5 	 103
4084.6 	 104
4084.7 	 106
4084.8 	 108
4084.9 	 105
4085.0 	 98
4085.1 	 91
4085.2 	 84
4085.3 	 77
4085.4 	 70
4085.5 	 63
4085.6 	 56
4085.7 	 48
4085.8 	 41
4085.9 	 33
4086.0 	 26
4086.1 	 0
4894.4 	 0
4894.5 	 43
4894.6 	 70
4894.7 	 97
4894.8 	 124
4894.9 	 188
4895.0 	 223
4895.1 	 258
4895.2 	 304
4895.3 	 398
4895.4 	 554
4895.5 	 709
4895.6 	 905
4895.7 	 477
4895.8 	 530
4895.9 	 586
4896.0 	 646
4896.1 	 710
4896.2 	 779
4896.3 	 847
4896.4 	 916
4896.5 	 2481
4896.6 	 2708
4896.7 	 2998
4896.8 	 3293
4896.9 	 3788
4897.0 	 4629
4897.1 	 5468
4897.2 	 6305
4897.3 	 7164
4897.4 	 8051
4897.5 	 8938
4897.6 	 9828
4897.7 	 10716
4897.8 	 11599
4897.9 	 12466
4898.0 	 13277
4898.1 	 14039
4898.2 	 14804
4898.3 	 15568
4898.4 	 16333
4898.5 	 16791
4898.6 	 16722
4898.7 	 16526
4898.8 	 16174
4898.9 	 15820
4899.0 	 15464
4899.1 	 15107
4899.2 	 14751
4899.3 	 14248
4899.4 	 13474
4899.5 	 12674
4899.6 	 11873
4899.7 	 11079
4899.8 	 10290
4899.9 	 9502
4900.0 	 8714
4900.1 	 8016
4900.2 	 7448
4900.3 	 6865
4900.4 	 6293
4900.5 	 5722
4900.6 	 5153
4900.7 	 4598
4900.8 	 4079
4900.9 	 3742
4901.0 	 3618
4901.1 	 3495
4901.2 	 3363
4901.3 	 3240
4901.4 	 3117
4901.5 	 2987
4901.6 	 2846
4901.7 	 2714
4901.8 	 2598
4901.9 	 2482
4902.0 	 2366
4902.1 	 2253
4902.2 	 2140
4902.3 	 2024
4902.4 	 1909
4902.5 	 1798
4902.6 	 1695
4902.7 	 1593
4902.8 	 1492
4902.9 	 1395
4903.0 	 1302
4903.1 	 1210
4903.2 	 1117
4903.3 	 1031
4903.4 	 959
4903.5 	 886
4903.6 	 807
4903.7 	 749
4903.8 	 691
4903.9 	 618
4904.0 	 561
4904.1 	 517
4904.2 	 494
4904.3 	 475
4904.4 	 462
4904.5 	 449
4904.6 	 436
4904.7 	 422
4904.8 	 409
4904.9 	 405
4905.0 	 414
4905.1 	 421
4905.2 	 429
4905.3 	 436
4905.4 	 443
4905.5 	 451
4905.6 	 458
4905.7 	 388
4905.8 	 385
4905.9 	 382
4906.0 	 380
4906.1 	 377
4906.2 	 374
4906.3 	 372
4906.4 	 369
4906.6 	 0
4910.4 	 0
4912.6 	 0
4912.7 	 31
4912.8 	 30
4912.9 	 30
4913.0 	 30
4913.1 	 29
4913.2 	 29
4913.3 	 28
4913.4 	 28
4913.5 	 27
4913.6 	 26
4913.7 	 25
4913.8 	 24
4913.9 	 23
4914.0 	 22
4914.1 	 21
4914.2 	 20
4914.3 	 19
4914.4 	 18
4914.5 	 18
4914.6 	 17
4914.7 	 16
4914.8 	 16
4914.9 	 16
4915.0 	 16
4915.1 	 16
4915.2 	 17
4915.3 	 17
4915.4 	 17
4915.5 	 17
4915.6 	 16
4915.7 	 107
4915.8 	 101
4915.9 	 104
4916.0 	 98
4916.1 	 94
4916.2 	 92
4916.3 	 91
4916.4 	 89
4916.5 	 88
4916.6 	 86
4916.7 	 85
4916.8 	 74
4916.9 	 75
4917.0 	 82
4917.1 	 88
4917.2 	 95
4917.3 	 88
4917.4 	 94
4917.5 	 100
4917.6 	 105
4917.7 	 111
4917.8 	 117
4917.9 	 124
4918.0 	 158
4918.1 	 166
4918.2 	 172
4918.3 	 181
4918.4 	 193
4918.5 	 201
4918.6 	 217
4918.7 	 222
4918.8 	 227
4918.9 	 230
4919.0 	 233
4919.1 	 234
4919.2 	 234
4919.3 	 233
4919.4 	 230
4919.5 	 227
4919.6 	 214
4919.7 	 210
4919.8 	 203
4919.9 	 197
4920.0 	 190
4920.1 	 186
4920.2 	 183
4920.3 	 181
4920.4 	 178
4920.5 	 175
4920.6 	 172
4920.7 	 169
4920.8 	 166
4920.9 	 165
4921.0 	 166
4921.1 	 168
4921.2 	 170
4921.3 	 172
4921.4 	 175
4921.5 	 177
4921.6 	 179
4921.7 	 180
4921.8 	 179
4921.9 	 179
4922.0 	 178
4922.1 	 178
4922.2 	 177
4922.3 	 176
4922.4 	 165
4922.5 	 162
4922.6 	 155
4922.7 	 148
4922.8 	 140
4922.9 	 133
4923.0 	 125
4923.1 	 118
4923.2 	 110
4923.3 	 101
4923.4 	 92
4923.5 	 83
4923.6 	 75
4923.7 	 66
4923.8 	 57
4923.9 	 36
4924.0 	 29
4924.1 	 24
4924.2 	 24
4924.3 	 24
4924.4 	 25
4925.3 	 26
4925.4 	 26
4925.5 	 27
4925.6 	 27
4925.7 	 28
4925.8 	 30
4925.9 	 33
4926.0 	 35
4926.1 	 37
4926.2 	 40
4926.3 	 42
4926.4 	 44
4926.6 	 0
6900.0 	 1
##ESI mass spectrum
##Adduct mass = -1.0079
594.2 	 18
594.3 	 50
594.4 	 80
594.5 	 94
594.6 	 107
594.7 	 116
594.8 	 106
594.9 	 54
595.0 	 11
610.8 	 14
610.9 	 121
611.1 	 1900
611.2 	 7170
611.3 	 12368
611.4 	 10972
611.5 	 6444
611.6 	 2857
611.7 	 2011
611.8 	 1367
611.9 	 815
612.0 	 431
612.1 	 315
612.2 	 389
612.3 	 367
612.4 	 246
612.5 	 139
612.6 	 123
612.7 	 175
612.8 	 197
612.9 	 155
613.0 	 97
613.1 	 78
613.2 	 109
613.3 	 137
613.4 	 116
613.5 	 71
613.6 	 63
613.7 	 109
613.8 	 158
613.9 	 149
614.0 	 118
614.1 	 117
614.2 	 144
614.3 	 140
614.4 	 82
614.5 	 24
614.7 	 27
614.8 	 46
614.9 	 37
615.0 	 13
615.2 	 20
615.3 	 34
615.4 	 27
615.5 	 13
615.6 	 14
615.7 	 28
615.8 	 34
615.9 	 19
617.7 	 10
617.8 	 16
617.9 	 10
627.3 	 17
627.4 	 17
627.5 	 9
627.7 	 10
627.8 	 17
627.9 	 11
651.7 	 12
651.8 	 19
651.9 	 12
657.2 	 10
657.3 	 21
657.4 	 25
657.5 	 22
657.6 	 22
657.7 	 24
657.8 	 24
657.9 	 13
679.1 	 11
679.2 	 44
679.3 	 87
679.4 	 99
679.5 	 81
679.6 	 76
679.7 	 98
679.8 	 109
679.9 	 67
680.0 	 22
683.7 	 10
683.8 	 10
690.8 	 11
698.2 	 18
698.3 	 114
698.4 	 371
698.5 	 675
698.6 	 1776
698.7 	 3282
698.8 	 4119
698.9 	 2985
699.0 	 1521
699.1 	 724
699.2 	 674
699.3 	 496
699.4 	 290
699.5 	 138
699.6 	 78
699.7 	 87
699.8 	 74
699.9 	 43
700.0 	 18
700.1 	 16
700.2 	 25
700.3 	 23
700.4 	 14
700.6 	 11
700.7 	 22
700.8 	 31
700.9 	 28
701.0 	 21
701.1 	 16
701.2 	 17
701.3 	 14
701.4 	 10
701.6 	 20
701.7 	 44
701.8 	 63
701.9 	 52
702.0 	 32
702.1 	 22
702.2 	 25
702.3 	 24
702.4 	 13
703.5 	 10
703.6 	 15
703.7 	 18
703.8 	 10
757.3 	 9
764.2 	 15
764.3 	 32
764.4 	 35
764.5 	 29
764.6 	 33
764.7 	 46
764.8 	 44
764.9 	 24
765.0 	 10
765.1 	 9
765.2 	 11
766.8 	 13
766.9 	 17
767.0 	 17
767.1 	 14
767.2 	 9
780.2 	 9
780.3 	 9
794.8 	 12
794.9 	 12
795.0 	 13
795.1 	 13
795.2 	 10
797.7 	 11
797.8 	 18
797.9 	 13
804.6 	 17
804.7 	 24
804.8 	 23
804.9 	 14
810.2 	 9
810.3 	 10
813.8 	 10
814.8 	 32
814.9 	 81
815.0 	 115
815.1 	 204
815.2 	 340
815.3 	 443
815.4 	 369
815.5 	 246
815.6 	 180
815.7 	 185
815.8 	 162
815.9 	 102
816.0 	 51
816.1 	 29
816.2 	 25
816.3 	 16
818.3 	 9
818.4 	 9
818.7 	 11
818.8 	 21
818.9 	 18
819.0 	 12
819.1 	 9
819.2 	 12
819.3 	 14
819.4 	 10
820.8 	 12
825.2 	 9
825.3 	 13
825.4 	 9
834.1 	 9
834.2 	 19
834.3 	 22
834.4 	 15
835.2 	 11
835.3 	 10
911.7 	 11
911.8 	 17
911.9 	 17
912.0 	 11
914.3 	 9
917.2 	 9
917.3 	 10
917.8 	 11
978.1 	 37
978.2 	 83
978.3 	 123
978.4 	 126
978.5 	 113
978.6 	 123
978.7 	 148
978.8 	 157
978.9 	 119
979.0 	 72
979.1 	 44
979.2 	 43
979.3 	 43
979.4 	 35
979.5 	 27
979.6 	 20
979.7 	 13
982.7 	 11
982.8 	 16
982.9 	 10
1222.9 	 15
1223.0 	 21
1223.1 	 30
1223.2 	 41
1223.3 	 47
1223.4 	 41
1223.5 	 36
1223.6 	 47
1223.7 	 61
1223.8 	 58
1223.9 	 34
1224.0 	 15
1224.2 	 10
1224.3 	 9
