##Deconvoluted mass spectrum
1000.0 	 1
5752.6 	 0
5752.7 	 11
5752.8 	 13
5752.9 	 67
5753.0 	 85
5753.1 	 103
5753.2 	 120
5753.3 	 138
5753.4 	 156
5753.5 	 173
5753.6 	 190
5753.7 	 207
5753.8 	 226
5753.9 	 244
5754.0 	 262
5754.1 	 280
5754.2 	 298
5754.3 	 315
5754.4 	 333
5754.5 	 346
5754.6 	 353
5754.7 	 359
5754.8 	 363
5754.9 	 368
5755.0 	 372
5755.1 	 377
5755.2 	 382
5755.3 	 383
5755.4 	 379
5755.5 	 374
5755.6 	 369
5755.7 	 366
5755.8 	 362
5755.9 	 358
5756.0 	 354
5756.1 	 351
5756.2 	 348
5756.3 	 344
5756.4 	 339
5756.5 	 335
5756.6 	 331
5756.7 	 328
5756.8 	 324
5756.9 	 323
5757.0 	 324
5757.1 	 340
5757.2 	 342
5757.3 	 345
5757.4 	 346
5757.5 	 345
5757.6 	 328
5757.7 	 329
5757.8 	 328
5757.9 	 327
5758.0 	 326
5758.1 	 325
5758.2 	 310
5758.3 	 308
5758.4 	 301
5758.5 	 292
5758.6 	 278
5758.7 	 264
5758.8 	 250
5758.9 	 237
5759.0 	 223
5759.1 	 209
5759.2 	 195
5759.3 	 181
5759.4 	 168
5759.5 	 155
5759.6 	 141
5759.7 	 128
5759.8 	 115
5759.9 	 101
5760.0 	 88
5760.1 	 47
5760.2 	 44
5760.3 	 41
5760.4 	 38
5760.5 	 35
5760.6 	 32
5760.7 	 29
5760.8 	 26
5760.9 	 23
5761.0 	 21
5761.1 	 21
5761.2 	 21
5761.3 	 21
5761.4 	 20
5761.5 	 20
5761.6 	 20
5761.7 	 20
5761.8 	 20
5761.9 	 20
5762.0 	 19
5762.1 	 18
5762.2 	 17
5762.3 	 16
5762.4 	 15
5762.5 	 14
5762.6 	 14
5762.7 	 13
5762.9 	 0
6040.8 	 0
6040.9 	 80
6041.0 	 103
6041.1 	 127
6041.2 	 150
6041.3 	 174
6041.4 	 197
6041.5 	 220
6041.6 	 244
6041.7 	 552
6041.8 	 749
6041.9 	 944
6042.0 	 1138
6042.1 	 1372
6042.2 	 1576
6042.3 	 1780
6042.4 	 1984
6042.5 	 2217
6042.6 	 2512
6042.7 	 2820
6042.8 	 3190
6042.9 	 3560
6043.0 	 3929
6043.1 	 4299
6043.2 	 4661
6043.3 	 5019
6043.4 	 5390
6043.5 	 5760
6043.6 	 6219
6043.7 	 6896
6043.8 	 7574
6043.9 	 8240
6044.0 	 8894
6044.1 	 9546
6044.2 	 10196
6044.3 	 10846
6044.4 	 11496
6044.5 	 12156
6044.6 	 12844
6044.7 	 13537
6044.8 	 14229
6044.9 	 14877
6045.0 	 15449
6045.1 	 16023
6045.2 	 16598
6045.3 	 17178
6045.4 	 17647
6045.5 	 17836
6045.6 	 18026
6045.7 	 18154
6045.8 	 18173
6045.9 	 18192
6046.0 	 18206
6046.1 	 18214
6046.2 	 18222
6046.3 	 18033
6046.4 	 17358
6046.5 	 16619
6046.6 	 15771
6046.7 	 14913
6046.8 	 14044
6046.9 	 13173
6047.0 	 12300
6047.1 	 11427
6047.2 	 10558
6047.3 	 9733
6047.4 	 8960
6047.5 	 8189
6047.6 	 7406
6047.7 	 6635
6047.8 	 5864
6047.9 	 5094
6048.0 	 4323
6048.1 	 3700
6048.2 	 3396
6048.3 	 3092
6048.4 	 2787
6048.5 	 2483
6048.6 	 2179
6048.7 	 1862
6048.8 	 1565
6048.9 	 1305
6049.0 	 1172
6049.1 	 1218
6049.2 	 1265
6049.3 	 1312
6049.4 	 1358
6049.5 	 1403
6049.6 	 1446
6049.7 	 1479
6049.8 	 1495
6049.9 	 1493
6050.0 	 1445
6050.1 	 1398
6050.2 	 1351
6050.3 	 1305
6050.4 	 1258
6050.5 	 1211
6050.6 	 1163
6050.7 	 1115
6050.8 	 1066
6050.9 	 997
6051.0 	 947
6051.1 	 898
6051.2 	 851
6051.3 	 805
6051.4 	 762
6051.5 	 719
6051.6 	 675
6051.7 	 634
6051.8 	 597
6051.9 	 559
6052.0 	 522
6052.1 	 471
6052.2 	 441
6052.3 	 412
6052.4 	 383
6052.5 	 353
6052.6 	 329
6052.7 	 316
6052.8 	 304
6052.9 	 293
6053.0 	 285
6053.1 	 278
6053.2 	 270
6053.3 	 263
6053.4 	 255
6053.5 	 251
6053.6 	 257
6053.7 	 196
6053.8 	 201
6053.9 	 206
6054.0 	 211
6054.1 	 216
6054.2 	 221
6054.3 	 226
6054.4 	 230
6054.5 	 230
6054.6 	 231
6054.7 	 231
6054.8 	 231
6054.9 	 232
6055.0 	 232
6055.1 	 232
6055.2 	 233
6055.4 	 0
6058.4 	 0
6058.5 	 70
6058.6 	 66
6058.7 	 63
6058.8 	 60
6058.9 	 56
6059.0 	 53
6059.1 	 50
6059.2 	 46
6059.3 	 43
6059.4 	 41
6059.5 	 38
6059.6 	 36
6059.7 	 34
6059.8 	 186
6059.9 	 180
6060.0 	 173
6060.1 	 167
6060.2 	 162
6060.3 	 158
6060.4 	 153
6060.5 	 149
6060.6 	 144
6060.7 	 139
6060.8 	 132
6060.9 	 126
6061.0 	 120
6061.1 	 115
6061.2 	 109
6061.3 	 104
6061.4 	 98
6061.5 	 93
6061.6 	 89
6061.7 	 88
6061.8 	 87
6061.9 	 86
6062.0 	 85
6062.1 	 84
6062.2 	 84
6062.3 	 83
6062.4 	 82
6062.5 	 83
6062.6 	 90
6062.7 	 98
6062.8 	 105
6062.9 	 112
6063.0 	 119
6063.1 	 126
6063.2 	 134
6063.3 	 141
6063.4 	 148
6063.5 	 167
6063.6 	 176
6063.7 	 196
6063.8 	 206
6063.9 	 215
6064.0 	 225
6064.1 	 235
6064.2 	 246
6064.3 	 256
6064.4 	 263
6064.5 	 271
6064.6 	 278
6064.7 	 286
6064.8 	 293
6064.9 	 302
6065.0 	 312
6065.1 	 322
6065.2 	 330
6065.3 	 323
6065.4 	 328
6065.5 	 333
6065.6 	 338
6065.7 	 342
6065.8 	 346
6065.9 	 350
6066.0 	 372
6066.1 	 377
6066.2 	 381
6066.3 	 386
6066.4 	 392
6066.5 	 396
6066.6 	 393
6066.7 	 392
6066.8 	 390
6066.9 	 388
6067.0 	 387
6067.1 	 385
6067.2 	 384
6067.3 	 382
6067.4 	 377
6067.5 	 372
6067.6 	 367
6067.7 	 361
6067.8 	 353
6067.9 	 345
6068.0 	 335
6068.1 	 327
6068.2 	 320
6068.3 	 313
6068.4 	 296
6068.5 	 290
6068.6 	 284
6068.7 	 279
6068.8 	 271
6068.9 	 258
6069.0 	 248
6069.1 	 227
6069.2 	 219
6069.3 	 211
6069.4 	 204
6069.5 	 196
6069.6 	 188
6069.7 	 179
6069.8 	 169
6069.9 	 159
6070.0 	 150
6070.1 	 140
6070.2 	 130
6070.3 	 120
6070.4 	 110
6070.5 	 100
6070.6 	 90
6070.7 	 86
6070.8 	 82
6070.9 	 78
6071.0 	 74
6071.1 	 32
6071.2 	 30
6071.3 	 28
6071.4 	 27
6071.5 	 26
6071.6 	 26
6072.0 	 24
6072.1 	 22
6072.2 	 21
6072.3 	 19
6072.4 	 18
6072.5 	 19
6072.6 	 20
6072.7 	 21
6072.8 	 22
6072.9 	 23
6073.0 	 24
6073.1 	 25
6073.2 	 26
6073.3 	 41
6073.4 	 40
6073.5 	 39
6073.6 	 37
6073.7 	 36
6073.8 	 36
6073.9 	 37
6074.0 	 37
6074.1 	 37
6074.2 	 37
6074.3 	 36
6074.4 	 35
6074.5 	 17
6074.6 	 15
6074.7 	 14
6074.8 	 13
6074.9 	 11
6075.0 	 10
6075.1 	 9
6075.2 	 9
6075.3 	 8
6075.4 	 8
6075.5 	 8
6075.6 	 7
6075.7 	 7
6075.8 	 7
6075.9 	 6
6076.0 	 6
6076.1 	 7
6076.2 	 8
6076.3 	 10
6076.4 	 11
6076.5 	 12
6076.6 	 13
6076.7 	 14
6076.8 	 15
6076.9 	 16
6077.0 	 17
6077.1 	 18
6077.2 	 19
6077.3 	 19
6077.4 	 20
6077.5 	 21
6077.6 	 22
6077.7 	 22
6077.9 	 0
8000.0 	 1
##ESI mass spectrum
##Adduct mass = -1.0079
590.2 	 10
603.2 	 16
603.3 	 51
603.4 	 84
603.5 	 97
603.6 	 113
603.7 	 137
603.8 	 143
603.9 	 97
604.0 	 49
604.1 	 23
604.2 	 17
638.2 	 29
638.3 	 68
638.4 	 92
638.5 	 100
638.6 	 121
638.7 	 152
638.8 	 156
638.9 	 103
639.0 	 48
639.1 	 21
639.2 	 20
639.3 	 12
655.6 	 38
655.7 	 82
655.8 	 122
655.9 	 115
656.0 	 89
656.1 	 75
656.2 	 75
656.3 	 62
656.4 	 29
670.2 	 73
670.3 	 284
670.4 	 1037
670.5 	 2543
670.6 	 6816
670.7 	 11448
670.8 	 12535
670.9 	 7480
671.0 	 2610
671.1 	 666
671.2 	 1006
671.3 	 767
671.4 	 486
671.5 	 260
671.6 	 185
671.7 	 230
671.8 	 233
671.9 	 173
672.0 	 105
672.1 	 92
672.2 	 132
672.3 	 156
672.4 	 118
672.5 	 61
672.6 	 44
672.7 	 84
672.8 	 142
672.9 	 177
673.0 	 175
673.1 	 172
673.2 	 190
673.3 	 197
673.4 	 128
673.5 	 46
673.7 	 18
673.8 	 27
673.9 	 21
674.0 	 9
674.1 	 6
674.2 	 16
674.3 	 23
674.4 	 18
674.5 	 11
674.6 	 16
674.7 	 25
674.8 	 26
674.9 	 13
675.2 	 7
675.3 	 11
675.4 	 7
676.6 	 12
676.7 	 27
676.8 	 32
676.9 	 16
718.1 	 18
718.2 	 109
718.3 	 220
718.4 	 240
718.5 	 187
718.6 	 151
718.7 	 159
718.8 	 152
718.9 	 89
719.0 	 31
721.3 	 10
737.7 	 28
737.8 	 50
737.9 	 43
738.0 	 28
738.1 	 25
738.2 	 29
738.3 	 22
754.2 	 252
754.3 	 972
754.4 	 2269
754.5 	 3734
754.6 	 5203
754.7 	 5710
754.8 	 4812
754.9 	 2536
755.0 	 904
755.1 	 329
755.2 	 426
755.3 	 310
755.4 	 186
755.5 	 94
755.6 	 60
755.7 	 66
755.8 	 54
755.9 	 34
756.0 	 25
756.1 	 44
756.2 	 68
756.3 	 71
756.4 	 44
756.5 	 25
756.6 	 22
756.7 	 29
756.8 	 37
756.9 	 59
757.0 	 77
757.1 	 107
757.2 	 148
757.3 	 179
757.4 	 147
757.5 	 91
757.6 	 56
757.7 	 54
757.8 	 48
757.9 	 28
758.2 	 12
758.3 	 18
758.4 	 11
770.3 	 13
797.2 	 10
797.3 	 15
803.8 	 12
803.9 	 13
812.3 	 10
820.8 	 10
820.9 	 24
821.0 	 33
821.1 	 41
821.2 	 50
821.3 	 54
821.4 	 37
821.5 	 17
843.5 	 14
843.6 	 18
843.7 	 15
844.0 	 13
844.1 	 16
844.2 	 11
846.2 	 13
846.3 	 24
846.4 	 21
846.5 	 11
862.1 	 56
862.2 	 204
862.3 	 387
862.4 	 437
862.5 	 393
862.6 	 394
862.7 	 447
862.8 	 423
862.9 	 253
863.0 	 104
863.1 	 45
863.2 	 55
863.3 	 40
863.4 	 18
864.3 	 10
865.2 	 10
865.3 	 14
865.4 	 10
865.6 	 21
865.7 	 37
865.8 	 41
865.9 	 26
866.0 	 12
958.5 	 14
958.6 	 17
958.7 	 14
1006.0 	 19
1006.1 	 54
1006.2 	 108
1006.3 	 155
1006.4 	 145
1006.5 	 112
1006.6 	 90
1006.7 	 92
1006.8 	 88
1006.9 	 64
1007.0 	 35
1007.1 	 14
1009.6 	 10
1009.7 	 13
1009.8 	 16
1009.9 	 17
1010.0 	 17
1010.1 	 18
1010.2 	 20
1010.3 	 17
1010.4 	 10
1059.0 	 10
1059.1 	 14
1059.2 	 17
1059.3 	 17
1059.4 	 10
1207.5 	 12
1207.6 	 20
1207.7 	 30
1207.8 	 35
1207.9 	 26
1208.0 	 16
1208.1 	 14
1208.2 	 19
1208.3 	 21
1208.4 	 18
1208.5 	 12
