##Deconvoluted mass spectrum
1000.0 	 1
4413.5 	 0
4413.7 	 2
4413.8 	 3
4413.9 	 4
4414.0 	 5
4414.1 	 6
4414.2 	 7
4414.3 	 7
4414.4 	 8
4414.5 	 8
4414.6 	 8
4414.7 	 8
4414.8 	 9
4414.9 	 9
4415.0 	 8
4415.1 	 7
4415.2 	 7
4415.3 	 6
4415.4 	 5
4415.5 	 5
4415.6 	 5
4415.7 	 5
4417.0 	 7
4417.1 	 7
4417.2 	 7
4417.3 	 7
4417.4 	 8
4417.5 	 9
4417.6 	 10
4417.7 	 11
4417.8 	 12
4417.9 	 12
4418.0 	 11
4418.1 	 10
4418.2 	 10
4418.3 	 9
4418.4 	 8
4418.5 	 8
4418.6 	 6
4418.7 	 6
4418.8 	 4
4418.9 	 4
4419.0 	 2
4419.1 	 2
4419.2 	 2
4419.3 	 2
4420.0 	 3
4420.1 	 3
4420.2 	 3
4420.3 	 3
4420.4 	 3
4420.5 	 3
4420.6 	 4
4420.7 	 4
4420.8 	 4
4420.9 	 4
4421.0 	 4
4421.1 	 3
4421.2 	 3
4421.3 	 2
4421.5 	 0
5926.9 	 0
5927.0 	 12
5927.1 	 14
5927.2 	 15
5927.3 	 17
5927.4 	 19
5927.5 	 20
5927.6 	 22
5927.7 	 23
5927.8 	 23
5927.9 	 24
5928.0 	 24
5928.1 	 24
5928.2 	 25
5928.3 	 25
5928.4 	 25
5928.5 	 24
5928.6 	 23
5928.7 	 22
5928.8 	 21
5928.9 	 20
5929.0 	 20
5929.1 	 19
5929.2 	 20
5929.3 	 20
5929.4 	 20
5929.5 	 21
5929.6 	 21
5929.7 	 22
5929.8 	 23
5929.9 	 25
5930.0 	 26
5930.1 	 28
5930.2 	 30
5930.3 	 32
5930.4 	 34
5930.5 	 35
5930.6 	 36
5930.7 	 36
5930.8 	 37
5930.9 	 38
5931.0 	 38
5931.1 	 39
5931.2 	 38
5931.3 	 36
5931.4 	 33
5931.5 	 31
5931.6 	 28
5931.7 	 26
5931.8 	 23
5931.9 	 21
5932.0 	 18
5932.1 	 16
5932.2 	 14
5932.3 	 11
5932.4 	 9
5932.5 	 6
5932.7 	 0
7142.0 	 0
7142.1 	 4
7142.2 	 4
7142.3 	 5
7142.4 	 5
7142.5 	 6
7142.6 	 6
7142.7 	 6
7142.8 	 7
7142.9 	 7
7143.0 	 8
7143.1 	 8
7143.2 	 8
7143.3 	 8
7143.4 	 7
7143.5 	 7
7143.6 	 7
7143.7 	 7
7143.8 	 7
7143.9 	 6
7144.0 	 6
7144.1 	 6
7144.2 	 6
7144.3 	 6
7144.4 	 6
7144.5 	 5
7146.6 	 3
7146.7 	 2
7146.8 	 2
7146.9 	 2
7147.0 	 2
7147.1 	 2
7147.2 	 2
7147.3 	 2
7147.4 	 3
7147.5 	 3
7147.6 	 3
7147.7 	 3
7147.8 	 3
7147.9 	 4
7148.0 	 4
7148.1 	 4
7148.2 	 4
7148.3 	 4
7148.4 	 3
7148.5 	 3
7148.6 	 3
7148.7 	 3
7148.8 	 3
7148.9 	 2
7149.0 	 2
7149.1 	 2
7149.2 	 2
7149.3 	 2
7149.4 	 2
7149.5 	 2
7151.6 	 2
7151.7 	 2
7151.8 	 2
7151.9 	 2
7152.0 	 2
7152.1 	 2
7152.2 	 2
7152.3 	 2
7152.4 	 2
7152.5 	 2
7152.6 	 2
7152.7 	 3
7152.8 	 3
7152.9 	 3
7153.0 	 3
7153.2 	 0
7776.0 	 0
7776.1 	 8
7776.2 	 10
7776.3 	 12
7776.4 	 15
7776.5 	 18
7776.6 	 20
7776.7 	 22
7776.8 	 25
7776.9 	 28
7777.0 	 38
7777.1 	 70
7777.2 	 80
7777.3 	 91
7777.4 	 102
7777.5 	 112
7777.6 	 123
7777.7 	 134
7777.8 	 144
7777.9 	 155
7778.0 	 167
7778.1 	 178
7778.2 	 188
7778.3 	 200
7778.4 	 212
7778.5 	 247
7778.6 	 259
7778.7 	 271
7778.8 	 283
7778.9 	 292
7779.0 	 302
7779.1 	 312
7779.2 	 320
7779.3 	 329
7779.4 	 335
7779.5 	 342
7779.6 	 349
7779.7 	 355
7779.8 	 359
7779.9 	 363
7780.0 	 367
7780.1 	 371
7780.2 	 376
7780.3 	 380
7780.4 	 384
7780.5 	 382
7780.6 	 379
7780.7 	 376
7780.8 	 373
7780.9 	 370
7781.0 	 366
7781.1 	 362
7781.2 	 359
7781.3 	 356
7781.4 	 352
7781.5 	 348
7781.6 	 342
7781.7 	 323
7781.8 	 318
7781.9 	 312
7782.0 	 307
7782.1 	 302
7782.2 	 295
7782.3 	 288
7782.4 	 281
7782.5 	 274
7782.6 	 268
7782.7 	 262
7782.8 	 256
7782.9 	 250
7783.0 	 245
7783.1 	 238
7783.2 	 230
7783.3 	 222
7783.4 	 213
7783.5 	 205
7783.6 	 196
7783.7 	 188
7783.8 	 181
7783.9 	 174
7784.0 	 168
7784.1 	 161
7784.2 	 155
7784.3 	 149
7784.4 	 144
7784.5 	 138
7784.6 	 132
7784.7 	 127
7784.8 	 121
7784.9 	 114
7785.0 	 107
7785.1 	 100
7785.2 	 97
7785.3 	 94
7785.4 	 92
7785.5 	 89
7785.6 	 81
7785.7 	 78
7785.8 	 76
7785.9 	 74
7786.0 	 70
7786.1 	 67
7786.2 	 63
7786.3 	 60
7786.4 	 56
7786.5 	 53
7786.6 	 53
7786.7 	 49
7786.8 	 45
7786.9 	 41
7787.0 	 38
7787.1 	 37
7787.2 	 37
7787.3 	 36
7787.4 	 36
7787.5 	 35
7787.6 	 3
7787.7 	 3
7787.8 	 3
7787.9 	 4
7788.0 	 4
7788.1 	 4
7788.2 	 4
7788.3 	 4
7788.4 	 3
7788.5 	 3
7788.6 	 3
7788.7 	 3
7788.8 	 3
7788.9 	 2
7789.0 	 2
7789.2 	 0
7789.8 	 16
7789.9 	 16
7790.0 	 15
7790.1 	 14
7790.2 	 14
7790.3 	 13
7790.4 	 13
7790.5 	 13
7790.6 	 14
7790.7 	 14
7790.8 	 14
7790.9 	 14
7791.0 	 14
7791.1 	 14
7791.2 	 15
7791.3 	 15
7791.5 	 0
7796.6 	 8
7796.7 	 8
7796.8 	 8
7796.9 	 8
7797.0 	 8
7797.1 	 8
7797.2 	 8
7797.3 	 9
7797.4 	 9
7797.5 	 10
7797.6 	 10
7797.7 	 10
7797.8 	 11
7797.9 	 11
7798.0 	 12
7798.1 	 12
7798.2 	 12
7798.3 	 11
7798.4 	 11
7798.5 	 10
7798.6 	 10
7798.7 	 10
7798.8 	 9
7798.9 	 9
7799.0 	 8
7799.2 	 0
7906.8 	 0
7906.9 	 3
7907.0 	 4
7907.1 	 35
7907.2 	 42
7907.3 	 48
7907.4 	 55
7907.5 	 62
7907.6 	 68
7907.7 	 75
7907.8 	 82
7907.9 	 89
7908.0 	 95
7908.1 	 103
7908.2 	 117
7908.3 	 130
7908.4 	 213
7908.5 	 251
7908.6 	 289
7908.7 	 327
7908.8 	 365
7908.9 	 496
7909.0 	 584
7909.1 	 667
7909.2 	 740
7909.3 	 841
7909.4 	 1002
7909.5 	 1133
7909.6 	 1264
7909.7 	 1410
7909.8 	 1583
7909.9 	 1756
7910.0 	 1928
7910.1 	 2120
7910.2 	 2397
7910.3 	 2708
7910.4 	 3020
7910.5 	 3331
7910.6 	 3640
7910.7 	 3950
7910.8 	 4260
7910.9 	 4570
7911.0 	 4880
7911.1 	 5322
7911.2 	 6119
7911.3 	 6906
7911.4 	 7675
7911.5 	 8445
7911.6 	 9213
7911.7 	 9981
7911.8 	 10750
7911.9 	 11518
7912.0 	 12335
7912.1 	 13271
7912.2 	 14216
7912.3 	 15156
7912.4 	 16096
7912.5 	 17029
7912.6 	 17962
7912.7 	 18895
7912.8 	 19828
7912.9 	 20648
7913.0 	 21196
7913.1 	 21701
7913.2 	 22038
7913.3 	 22375
7913.4 	 22712
7913.5 	 23048
7913.6 	 23380
7913.7 	 23688
7913.8 	 23700
7913.9 	 23087
7914.0 	 22474
7914.1 	 21834
7914.2 	 21095
7914.3 	 20358
7914.4 	 19622
7914.5 	 18850
7914.6 	 18016
7914.7 	 17152
7914.8 	 16218
7914.9 	 15284
7915.0 	 14349
7915.1 	 13413
7915.2 	 12463
7915.3 	 11539
7915.4 	 10631
7915.5 	 9724
7915.6 	 8914
7915.7 	 8344
7915.8 	 7773
7915.9 	 7203
7916.0 	 6632
7916.1 	 6101
7916.2 	 5667
7916.3 	 5233
7916.4 	 4799
7916.5 	 4463
7916.6 	 4366
7916.7 	 4270
7916.8 	 4174
7916.9 	 4093
7917.0 	 4043
7917.1 	 3974
7917.2 	 3923
7917.3 	 3872
7917.4 	 3806
7917.5 	 3699
7917.6 	 3593
7917.7 	 3481
7917.8 	 3361
7917.9 	 3240
7918.0 	 3116
7918.1 	 2989
7918.2 	 2853
7918.3 	 2718
7918.4 	 2584
7918.5 	 2450
7918.6 	 2315
7918.7 	 2180
7918.8 	 2045
7918.9 	 1910
7919.0 	 1776
7919.1 	 1647
7919.2 	 1539
7919.3 	 1441
7919.4 	 1345
7919.5 	 1249
7919.6 	 1153
7919.7 	 1057
7919.8 	 961
7919.9 	 865
7920.0 	 769
7920.1 	 689
7920.2 	 655
7920.3 	 621
7920.4 	 587
7920.5 	 553
7920.6 	 519
7920.7 	 485
7920.8 	 451
7920.9 	 419
7921.0 	 394
7921.1 	 384
7921.2 	 392
7921.3 	 402
7921.4 	 412
7921.5 	 421
7921.6 	 431
7921.7 	 402
7921.8 	 410
7921.9 	 417
7922.0 	 420
7922.1 	 459
7922.2 	 455
7922.3 	 451
7922.4 	 446
7922.5 	 441
7922.6 	 434
7922.7 	 428
7922.8 	 251
7922.9 	 245
7923.0 	 239
7923.1 	 233
7923.2 	 224
7923.3 	 355
7923.4 	 342
7923.5 	 328
7923.6 	 314
7923.7 	 280
7923.8 	 266
7923.9 	 251
7924.0 	 237
7924.1 	 112
7924.2 	 104
7924.3 	 96
7924.4 	 88
7924.5 	 62
7924.6 	 136
7924.7 	 128
7924.8 	 121
7924.9 	 114
7925.0 	 106
7925.1 	 112
7925.2 	 110
7925.3 	 107
7925.4 	 104
7925.5 	 103
7925.6 	 106
7925.7 	 110
7925.8 	 114
7925.9 	 118
7926.0 	 122
7926.1 	 127
7926.2 	 136
7926.3 	 145
7926.4 	 154
7926.5 	 178
7926.6 	 186
7926.7 	 193
7926.8 	 201
7926.9 	 95
7927.0 	 100
7927.1 	 103
7927.2 	 106
7927.3 	 233
7927.4 	 232
7927.5 	 232
7927.6 	 136
7927.7 	 132
7927.8 	 132
7927.9 	 129
7928.0 	 126
7928.1 	 230
7928.2 	 224
7928.3 	 216
7928.4 	 205
7928.5 	 197
7928.6 	 189
7928.7 	 181
7928.8 	 173
7928.9 	 165
7929.0 	 158
7929.1 	 152
7929.2 	 150
7929.3 	 147
7929.4 	 144
7929.5 	 141
7929.6 	 138
7929.7 	 136
7929.8 	 133
7929.9 	 131
7930.0 	 131
7930.1 	 137
7930.2 	 147
7930.3 	 157
7930.4 	 167
7930.5 	 177
7930.6 	 187
7930.7 	 197
7930.8 	 207
7930.9 	 218
7931.0 	 229
7931.1 	 242
7931.2 	 258
7931.3 	 274
7931.4 	 290
7931.5 	 306
7931.6 	 322
7931.7 	 338
7931.8 	 352
7931.9 	 361
7932.0 	 370
7932.1 	 379
7932.2 	 388
7932.3 	 398
7932.4 	 408
7932.5 	 417
7932.6 	 427
7932.7 	 435
7932.8 	 441
7932.9 	 446
7933.0 	 453
7933.1 	 458
7933.2 	 458
7933.3 	 458
7933.4 	 459
7933.5 	 459
7933.6 	 461
7933.7 	 468
7933.8 	 473
7933.9 	 478
7934.0 	 484
7934.1 	 489
7934.2 	 493
7934.3 	 498
7934.4 	 502
7934.5 	 506
7934.6 	 512
7934.7 	 518
7934.8 	 523
7934.9 	 529
7935.0 	 534
7935.1 	 541
7935.2 	 551
7935.3 	 560
7935.4 	 566
7935.5 	 568
7935.6 	 570
7935.7 	 572
7935.8 	 575
7935.9 	 577
7936.0 	 579
7936.1 	 583
7936.2 	 589
7936.3 	 591
7936.4 	 579
7936.5 	 567
7936.6 	 555
7936.7 	 544
7936.8 	 533
7936.9 	 523
7937.0 	 515
7937.1 	 506
7937.2 	 494
7937.3 	 480
7937.4 	 466
7937.5 	 452
7937.6 	 439
7937.7 	 425
7937.8 	 411
7937.9 	 398
7938.0 	 384
7938.1 	 371
7938.2 	 358
7938.3 	 345
7938.4 	 332
7938.5 	 319
7938.6 	 304
7938.7 	 290
7938.8 	 276
7938.9 	 260
7939.0 	 247
7939.1 	 239
7939.2 	 231
7939.3 	 208
7939.4 	 179
7939.5 	 172
7939.6 	 166
7939.7 	 160
7939.8 	 154
7939.9 	 168
7940.0 	 158
7940.1 	 150
7940.2 	 144
7940.3 	 138
7940.4 	 133
7940.5 	 127
7940.6 	 121
7940.7 	 116
7940.8 	 110
7940.9 	 102
7941.0 	 96
7941.1 	 90
7941.2 	 88
7941.3 	 86
7941.4 	 84
7941.5 	 82
7941.6 	 71
7941.7 	 69
7941.8 	 68
7941.9 	 67
7942.0 	 66
7942.1 	 65
7942.2 	 63
7942.3 	 61
7942.4 	 59
7942.5 	 57
7942.6 	 56
7942.7 	 56
7942.8 	 56
7942.9 	 56
7943.0 	 57
7943.1 	 57
7943.2 	 55
7943.3 	 54
7943.4 	 52
7943.5 	 52
7943.6 	 53
7943.7 	 53
7943.8 	 62
7943.9 	 63
7944.0 	 64
7944.1 	 65
7944.2 	 65
7944.3 	 65
7944.4 	 66
7944.5 	 67
7944.6 	 68
7944.7 	 70
7944.8 	 71
7944.9 	 72
7945.0 	 73
7945.1 	 75
7945.2 	 78
7945.3 	 52
7945.4 	 53
7945.5 	 52
7945.6 	 52
7945.7 	 52
7945.8 	 104
7945.9 	 106
7946.0 	 108
7946.1 	 110
7946.2 	 113
7946.3 	 115
7946.4 	 117
7946.5 	 119
7946.6 	 119
7946.7 	 119
7946.8 	 119
7946.9 	 119
7947.0 	 119
7947.1 	 119
7947.2 	 119
7947.3 	 120
7947.4 	 121
7947.5 	 122
7947.6 	 124
7947.7 	 108
7947.8 	 111
7947.9 	 113
7948.0 	 115
7948.1 	 81
7948.2 	 82
7948.3 	 84
7948.4 	 85
7948.5 	 87
7948.6 	 123
7948.7 	 124
7948.8 	 126
7948.9 	 126
7949.0 	 126
7949.1 	 125
7949.2 	 124
7949.3 	 139
7949.4 	 137
7949.5 	 136
7949.6 	 135
7949.7 	 134
7949.8 	 133
7949.9 	 129
7950.0 	 126
7950.1 	 122
7950.2 	 120
7950.3 	 117
7950.4 	 114
7950.5 	 111
7950.6 	 108
7950.7 	 104
7950.8 	 101
7950.9 	 98
7951.0 	 93
7951.1 	 89
7951.2 	 85
7951.3 	 82
7951.4 	 78
7951.5 	 75
7951.6 	 72
7951.7 	 71
7951.8 	 70
7951.9 	 69
7952.0 	 69
7952.1 	 52
7952.2 	 51
7952.3 	 50
7952.4 	 49
7952.5 	 48
7952.6 	 47
7952.7 	 46
7952.8 	 46
7952.9 	 45
7953.0 	 48
7953.1 	 46
7953.2 	 45
7953.3 	 43
7953.4 	 41
7953.5 	 40
7953.6 	 38
7953.7 	 33
7953.8 	 32
7953.9 	 30
7954.0 	 29
7954.1 	 27
7954.2 	 26
7954.3 	 24
7954.4 	 22
7954.5 	 20
7954.6 	 18
7954.7 	 15
7954.8 	 16
7954.9 	 14
7955.0 	 11
7955.1 	 9
7955.2 	 6
7955.3 	 6
7955.4 	 7
7955.5 	 7
7955.6 	 2
7955.7 	 2
7955.8 	 2
7955.9 	 3
7956.0 	 3
7956.1 	 3
7956.2 	 3
7956.3 	 3
7956.5 	 0
7956.6 	 6
7956.7 	 6
7956.8 	 7
7956.9 	 7
7957.0 	 7
7957.1 	 7
7957.2 	 8
7957.3 	 8
7957.4 	 8
7957.5 	 9
7958.0 	 0
7958.1 	 11
7958.2 	 10
7958.3 	 10
7958.4 	 10
7958.5 	 9
7958.6 	 9
7958.7 	 8
7958.8 	 8
7958.9 	 8
7959.0 	 7
7959.1 	 7
7959.2 	 7
7959.3 	 6
7959.4 	 6
7959.5 	 6
7960.6 	 3
7960.7 	 3
7960.8 	 3
7960.9 	 2
7961.0 	 2
7961.1 	 2
7961.2 	 4
7961.3 	 5
7961.4 	 6
7961.5 	 12
7961.6 	 16
7961.7 	 19
7961.8 	 22
7961.9 	 26
7962.0 	 29
7962.1 	 32
7962.2 	 36
7962.3 	 40
7962.4 	 44
7962.5 	 48
7962.6 	 53
7962.7 	 58
7962.8 	 63
7962.9 	 68
7963.0 	 72
7963.1 	 77
7963.2 	 81
7963.3 	 84
7963.4 	 88
7963.5 	 91
7963.6 	 95
7963.7 	 98
7963.8 	 102
7963.9 	 105
7964.0 	 109
7964.1 	 112
7964.2 	 115
7964.3 	 118
7964.4 	 120
7964.5 	 123
7964.6 	 126
7964.7 	 131
7964.8 	 134
7964.9 	 136
7965.0 	 139
7965.1 	 142
7965.2 	 147
7965.3 	 153
7965.4 	 158
7965.5 	 163
7965.6 	 169
7965.7 	 194
7965.8 	 200
7965.9 	 206
7966.0 	 212
7966.1 	 216
7966.2 	 221
7966.3 	 226
7966.4 	 230
7966.5 	 234
7966.6 	 237
7966.7 	 240
7966.8 	 243
7966.9 	 245
7967.0 	 245
7967.1 	 244
7967.2 	 242
7967.3 	 227
7967.4 	 227
7967.5 	 226
7967.6 	 224
7967.7 	 223
7967.8 	 221
7967.9 	 215
7968.0 	 209
7968.1 	 202
7968.2 	 193
7968.3 	 184
7968.4 	 175
7968.5 	 165
7968.6 	 156
7968.7 	 147
7968.8 	 138
7968.9 	 130
7969.0 	 121
7969.1 	 113
7969.2 	 104
7969.3 	 95
7969.4 	 86
7969.5 	 78
7969.6 	 68
7969.7 	 66
7969.8 	 63
7969.9 	 60
7970.0 	 57
7970.1 	 35
7970.2 	 33
7970.3 	 32
7970.4 	 31
7970.5 	 30
7970.6 	 28
7970.7 	 27
7970.8 	 26
7970.9 	 24
7971.0 	 23
7971.1 	 22
7971.2 	 22
7971.3 	 22
7971.4 	 22
7971.5 	 22
7971.6 	 22
7971.7 	 23
7971.8 	 23
7971.9 	 23
7972.0 	 23
7972.1 	 23
7972.2 	 23
7972.3 	 23
7972.4 	 22
7972.5 	 22
7972.6 	 22
7972.7 	 22
7972.8 	 22
7972.9 	 21
7973.0 	 21
7973.1 	 21
7973.2 	 20
7973.3 	 19
7973.4 	 18
7973.5 	 17
7973.6 	 16
7973.7 	 15
7973.8 	 14
7973.9 	 13
7974.0 	 12
7974.1 	 11
7974.2 	 10
7974.3 	 9
7974.4 	 8
7974.5 	 7
7974.6 	 6
7974.7 	 5
7974.8 	 4
7974.9 	 4
7975.0 	 3
7975.2 	 0
7975.5 	 3
7975.6 	 3
7975.7 	 2
7975.8 	 2
7976.0 	 0
9900.0 	 1
##ESI mass spectrum
##Adduct mass = -1.0079
619.2 	 15
619.3 	 22
619.4 	 15
647.4 	 14
647.5 	 14
647.6 	 14
647.7 	 15
658.3 	 18
658.4 	 15
658.7 	 17
658.8 	 18
660.8 	 13
661.8 	 17
675.8 	 14
706.0 	 25
706.1 	 76
706.2 	 149
706.3 	 207
706.4 	 190
706.5 	 145
706.6 	 113
706.7 	 100
706.8 	 74
706.9 	 36
707.2 	 13
707.3 	 15
707.8 	 2
707.9 	 4
708.0 	 5
708.1 	 6
708.2 	 8
708.3 	 9
708.4 	 5
709.2 	 6
709.3 	 11
709.4 	 9
709.5 	 4
710.4 	 4
710.5 	 10
710.6 	 10
710.7 	 4
711.3 	 4
711.4 	 10
711.5 	 10
711.6 	 5
713.2 	 4
713.3 	 8
713.4 	 6
713.7 	 2
713.8 	 4
713.9 	 2
714.2 	 2
714.3 	 3
716.5 	 2
716.6 	 6
716.7 	 6
716.8 	 2
717.8 	 3
717.9 	 12
718.0 	 16
718.1 	 61
718.2 	 167
718.3 	 302
718.4 	 351
718.5 	 328
718.6 	 296
718.7 	 278
718.8 	 228
718.9 	 131
719.0 	 59
719.1 	 35
719.2 	 39
719.3 	 31
719.4 	 18
719.5 	 8
719.6 	 3
719.7 	 3
720.2 	 2
720.3 	 3
720.4 	 4
720.5 	 7
720.6 	 16
720.7 	 24
720.8 	 22
720.9 	 10
721.2 	 8
721.3 	 15
721.4 	 15
721.5 	 13
721.6 	 21
721.7 	 32
721.8 	 34
721.9 	 18
722.0 	 4
722.2 	 2
722.3 	 3
723.1 	 2
723.2 	 8
723.3 	 12
723.4 	 8
723.5 	 2
724.8 	 2
729.5 	 2
731.8 	 2
734.6 	 2
734.7 	 7
734.8 	 9
734.9 	 5
735.2 	 7
735.3 	 12
735.4 	 8
735.5 	 2
735.7 	 3
735.8 	 4
735.9 	 2
739.2 	 2
739.3 	 4
739.4 	 2
753.3 	 2
756.4 	 3
756.5 	 8
756.6 	 10
756.7 	 7
756.8 	 3
757.2 	 3
757.3 	 7
757.4 	 6
757.5 	 4
759.6 	 2
759.7 	 12
759.8 	 23
759.9 	 20
760.0 	 8
760.1 	 5
760.2 	 13
760.3 	 16
760.4 	 9
765.2 	 4
765.3 	 6
765.4 	 4
776.6 	 7
776.7 	 32
776.8 	 59
776.9 	 66
777.0 	 64
777.1 	 73
777.2 	 82
777.3 	 73
777.4 	 37
777.5 	 7
777.7 	 2
777.8 	 4
777.9 	 2
778.7 	 8
778.8 	 12
778.9 	 8
783.3 	 2
785.2 	 4
785.3 	 6
785.4 	 4
789.7 	 29
789.8 	 88
789.9 	 221
790.0 	 167
790.1 	 1006
790.2 	 2938
790.3 	 5068
790.4 	 5079
790.5 	 3835
790.6 	 2604
790.7 	 2083
790.8 	 1515
790.9 	 830
791.0 	 351
791.1 	 173
791.2 	 209
791.3 	 178
791.4 	 112
791.5 	 49
791.6 	 41
791.7 	 82
791.8 	 108
791.9 	 85
792.0 	 49
792.1 	 63
792.2 	 123
792.3 	 171
792.4 	 160
792.5 	 139
792.6 	 161
792.7 	 206
792.8 	 211
792.9 	 142
793.0 	 70
793.1 	 40
793.2 	 51
793.3 	 54
793.4 	 40
793.5 	 20
793.6 	 16
793.7 	 27
793.8 	 37
793.9 	 33
794.0 	 23
794.1 	 23
794.2 	 35
794.3 	 39
794.4 	 22
794.5 	 4
794.7 	 7
794.8 	 11
794.9 	 7
795.1 	 2
795.2 	 16
795.3 	 34
795.4 	 40
795.5 	 38
795.6 	 52
795.7 	 74
795.8 	 84
795.9 	 61
796.0 	 35
796.1 	 22
796.2 	 23
796.3 	 21
796.4 	 11
796.5 	 2
801.7 	 2
801.8 	 4
801.9 	 2
802.2 	 2
802.3 	 4
802.4 	 3
806.8 	 2
807.7 	 3
807.8 	 5
807.9 	 3
820.8 	 2
841.4 	 3
841.5 	 8
841.6 	 22
841.7 	 34
841.8 	 37
841.9 	 20
842.0 	 4
843.2 	 6
843.3 	 12
843.4 	 9
843.5 	 2
843.7 	 3
843.8 	 5
843.9 	 3
844.1 	 5
844.2 	 34
844.3 	 70
844.4 	 78
844.5 	 63
844.6 	 51
844.7 	 47
844.8 	 35
844.9 	 15
845.0 	 2
845.7 	 11
845.8 	 23
845.9 	 25
846.0 	 19
846.1 	 22
846.2 	 35
846.3 	 39
846.4 	 22
846.5 	 5
863.1 	 7
863.2 	 37
863.3 	 77
863.4 	 93
863.5 	 85
863.6 	 67
863.7 	 50
863.8 	 33
863.9 	 15
864.0 	 2
865.2 	 8
865.3 	 12
865.4 	 8
872.3 	 2
877.7 	 62
877.8 	 281
877.9 	 989
878.0 	 2080
878.1 	 6569
878.2 	 12551
878.3 	 15347
878.4 	 10232
878.5 	 4227
878.6 	 1269
878.7 	 1349
878.8 	 927
878.9 	 526
879.0 	 236
879.1 	 137
879.2 	 177
879.3 	 171
879.4 	 118
879.5 	 57
879.6 	 47
879.7 	 94
879.8 	 128
879.9 	 102
880.0 	 53
880.1 	 57
880.2 	 128
880.3 	 210
880.4 	 226
880.5 	 195
880.6 	 223
880.7 	 320
880.8 	 370
880.9 	 253
881.0 	 118
881.1 	 56
881.2 	 64
881.3 	 50
881.4 	 23
881.5 	 3
881.6 	 3
881.7 	 23
881.8 	 46
881.9 	 56
882.0 	 58
882.1 	 63
882.2 	 70
882.3 	 60
882.4 	 28
882.5 	 3
882.7 	 4
882.8 	 6
882.9 	 3
883.6 	 4
883.7 	 21
883.8 	 48
883.9 	 74
884.0 	 101
884.1 	 132
884.2 	 147
884.3 	 131
884.4 	 72
884.5 	 21
885.2 	 2
885.3 	 4
885.4 	 2
891.1 	 2
891.2 	 9
891.3 	 15
891.4 	 9
891.7 	 8
891.8 	 12
891.9 	 8
892.2 	 2
892.3 	 4
892.4 	 2
894.3 	 17
911.8 	 17
911.9 	 14
950.2 	 17
950.3 	 16
952.2 	 13
952.3 	 13
971.3 	 23
971.4 	 27
971.5 	 26
971.6 	 21
971.7 	 14
987.6 	 75
987.7 	 469
987.8 	 1201
987.9 	 1920
988.0 	 2399
988.1 	 2832
988.2 	 3042
988.3 	 2713
988.4 	 1596
988.5 	 691
988.6 	 310
988.7 	 324
988.8 	 229
988.9 	 125
989.0 	 51
989.1 	 27
989.2 	 39
989.3 	 35
989.4 	 20
989.8 	 17
989.9 	 18
990.0 	 16
990.1 	 14
990.2 	 17
990.3 	 23
990.4 	 30
990.5 	 38
990.6 	 62
990.7 	 101
990.8 	 127
990.9 	 102
991.0 	 56
991.1 	 27
991.2 	 26
991.3 	 27
991.4 	 16
992.2 	 19
992.3 	 27
992.4 	 18
992.7 	 15
992.8 	 21
992.9 	 18
993.0 	 13
994.7 	 20
994.8 	 24
994.9 	 14
1002.8 	 14
1006.2 	 18
1006.3 	 28
1006.4 	 19
1128.9 	 32
1129.0 	 53
1129.1 	 89
1129.2 	 131
1129.3 	 164
1129.4 	 140
1129.5 	 101
1129.6 	 80
1129.7 	 83
1129.8 	 74
1129.9 	 46
1130.0 	 20
1317.2 	 13
1317.3 	 20
1317.4 	 22
1317.5 	 20
1317.6 	 17
1317.7 	 15
1317.8 	 16
1317.9 	 17
1318.0 	 18
1318.1 	 18
1318.2 	 15
