##Deconvoluted mass spectrum
1000.0 	 1
5975.2 	 0
5975.3 	 26
5975.4 	 34
5975.5 	 43
5975.6 	 51
5975.9 	 0
5976.0 	 68
5976.1 	 99
5976.2 	 130
5976.3 	 161
5976.4 	 192
5976.5 	 350
5976.6 	 390
5976.7 	 508
5976.8 	 631
5976.9 	 826
5977.0 	 1148
5977.1 	 1468
5977.2 	 1790
5977.3 	 2113
5977.4 	 2467
5977.5 	 2854
5977.6 	 3261
5977.7 	 3757
5977.8 	 4435
5977.9 	 5107
5978.0 	 5775
5978.1 	 6644
5978.2 	 7762
5978.3 	 8879
5978.4 	 9997
5978.5 	 11166
5978.6 	 12383
5978.7 	 13599
5978.8 	 14893
5978.9 	 16284
5979.0 	 17675
5979.1 	 19064
5979.2 	 20451
5979.3 	 21764
5979.4 	 22950
5979.5 	 23940
5979.6 	 24686
5979.7 	 25413
5979.8 	 26160
5979.9 	 26907
5980.0 	 27654
5980.1 	 28266
5980.2 	 28186
5980.3 	 27534
5980.4 	 26878
5980.5 	 26223
5980.6 	 25570
5980.7 	 24918
5980.8 	 24267
5980.9 	 23438
5981.0 	 22332
5981.1 	 21225
5981.2 	 20119
5981.3 	 19012
5981.4 	 17906
5981.5 	 16801
5981.6 	 15873
5981.7 	 15103
5981.8 	 14226
5981.9 	 13349
5982.0 	 12472
5982.1 	 11598
5982.2 	 10728
5982.3 	 10028
5982.4 	 9542
5982.5 	 9040
5982.6 	 8495
5982.7 	 7973
5982.8 	 7455
5982.9 	 6937
5983.0 	 6386
5983.1 	 5797
5983.2 	 5207
5983.3 	 4700
5983.4 	 4338
5983.5 	 3976
5983.6 	 3614
5983.7 	 3251
5983.8 	 2888
5983.9 	 2524
5984.0 	 2160
5984.1 	 1874
5984.2 	 1722
5984.3 	 1570
5984.4 	 1395
5984.5 	 1266
5984.6 	 1137
5984.7 	 1008
5984.8 	 878
5984.9 	 791
5985.0 	 776
5985.1 	 774
5985.2 	 788
5985.3 	 803
5985.4 	 817
5985.5 	 832
5985.6 	 846
5985.7 	 844
5985.8 	 823
5985.9 	 815
5986.0 	 806
5986.1 	 798
5986.2 	 790
5986.3 	 781
5986.4 	 773
5986.5 	 757
5986.6 	 730
5986.7 	 703
5986.8 	 676
5986.9 	 649
5987.0 	 622
5987.1 	 595
5987.2 	 404
5987.3 	 379
5987.4 	 355
5987.5 	 332
5987.6 	 308
5987.7 	 284
5987.8 	 260
5987.9 	 236
5988.0 	 212
5988.1 	 193
5988.2 	 184
5988.3 	 174
5988.4 	 164
5988.5 	 154
5988.6 	 145
5988.7 	 135
5988.8 	 125
5989.0 	 0
5994.1 	 0
5994.2 	 49
5994.3 	 47
5994.4 	 46
5994.5 	 146
5994.6 	 142
5994.7 	 137
5994.8 	 133
5994.9 	 129
5995.0 	 126
5995.1 	 123
5995.2 	 120
5995.3 	 82
5995.4 	 78
5995.5 	 74
5995.6 	 69
5995.7 	 65
5995.8 	 60
5995.9 	 56
5996.0 	 52
5996.1 	 49
5996.2 	 49
5996.3 	 50
5996.4 	 50
5996.5 	 50
5996.6 	 50
5996.7 	 51
5996.8 	 51
5996.9 	 53
5997.0 	 57
5997.1 	 62
5997.2 	 66
5997.3 	 71
5997.4 	 97
5997.5 	 101
5997.6 	 104
5997.7 	 108
5997.8 	 112
5997.9 	 116
5998.0 	 120
5998.1 	 123
5998.2 	 127
5998.3 	 131
5998.4 	 134
5998.5 	 136
5998.6 	 136
5998.7 	 136
5998.8 	 136
5998.9 	 136
5999.0 	 135
5999.1 	 139
5999.2 	 147
5999.3 	 155
5999.4 	 163
5999.5 	 171
5999.6 	 179
5999.7 	 188
5999.8 	 198
5999.9 	 211
6000.0 	 224
6000.1 	 239
6000.2 	 260
6000.3 	 280
6000.4 	 300
6000.5 	 319
6000.6 	 335
6000.7 	 367
6000.8 	 384
6000.9 	 403
6001.0 	 423
6001.1 	 444
6001.2 	 457
6001.3 	 461
6001.4 	 465
6001.5 	 469
6001.6 	 473
6001.7 	 475
6001.8 	 474
6001.9 	 470
6002.0 	 464
6002.1 	 459
6002.2 	 453
6002.3 	 447
6002.4 	 441
6002.5 	 431
6002.6 	 413
6002.7 	 398
6002.8 	 382
6002.9 	 366
6003.0 	 351
6003.1 	 336
6003.2 	 321
6003.3 	 308
6003.4 	 297
6003.5 	 287
6003.6 	 276
6003.7 	 265
6003.8 	 255
6003.9 	 244
6004.0 	 233
6004.1 	 224
6004.2 	 218
6004.3 	 211
6004.4 	 204
6004.5 	 197
6004.6 	 191
6004.7 	 182
6004.8 	 173
6004.9 	 150
6005.0 	 146
6005.1 	 143
6005.2 	 140
6005.3 	 136
6005.4 	 133
6005.5 	 129
6005.6 	 126
6005.7 	 121
6005.8 	 115
6005.9 	 109
6006.0 	 102
6006.1 	 82
6006.2 	 81
6006.3 	 79
6006.4 	 78
6006.5 	 75
6006.6 	 71
6006.7 	 66
6006.8 	 61
6006.9 	 57
6007.0 	 52
6007.1 	 48
6007.2 	 43
6007.3 	 38
6007.4 	 34
6007.5 	 30
6007.6 	 26
6007.7 	 22
6007.8 	 18
6007.9 	 14
6008.0 	 10
6008.1 	 7
6008.2 	 7
6008.3 	 7
6008.4 	 7
6009.3 	 8
6009.4 	 8
6009.5 	 8
6009.6 	 8
6009.7 	 8
6009.8 	 9
6009.9 	 10
6010.0 	 10
6010.1 	 11
6010.2 	 11
6010.3 	 12
6010.4 	 13
6010.6 	 0
8000.0 	 1
##ESI mass spectrum
##Adduct mass = -1.0079
626.8 	 20
663.4 	 21
663.5 	 28
663.6 	 28
663.7 	 23
663.8 	 18
708.3 	 19
710.3 	 22
729.6 	 55
729.7 	 177
729.8 	 296
729.9 	 274
730.0 	 187
730.1 	 132
730.2 	 138
730.3 	 124
730.4 	 64
745.9 	 23
746.1 	 158
746.2 	 1814
746.3 	 5763
746.4 	 10566
746.5 	 13769
746.6 	 14003
746.7 	 11490
746.8 	 7619
746.9 	 3434
747.0 	 1088
747.1 	 436
747.2 	 694
747.3 	 588
747.4 	 388
747.5 	 197
747.6 	 119
747.7 	 150
747.8 	 152
747.9 	 101
748.0 	 45
748.1 	 36
748.2 	 75
748.3 	 103
748.4 	 84
748.5 	 49
748.6 	 51
748.7 	 87
748.8 	 112
748.9 	 107
749.0 	 104
749.1 	 160
749.2 	 241
749.3 	 277
749.4 	 202
749.5 	 118
749.6 	 80
749.7 	 89
749.8 	 77
749.9 	 40
750.0 	 7
750.2 	 8
750.3 	 13
750.4 	 11
750.5 	 6
750.6 	 12
750.7 	 24
750.8 	 28
750.9 	 15
751.0 	 3
752.2 	 3
752.3 	 5
752.4 	 3
752.6 	 7
752.7 	 36
752.8 	 70
752.9 	 73
753.0 	 64
753.1 	 89
753.2 	 138
753.3 	 153
753.4 	 92
753.5 	 24
753.8 	 15
809.5 	 17
809.6 	 74
809.7 	 147
809.8 	 192
809.9 	 153
810.0 	 98
810.1 	 80
810.2 	 95
810.3 	 84
810.4 	 40
811.7 	 38
811.8 	 79
811.9 	 87
812.0 	 71
812.1 	 60
812.2 	 68
812.3 	 67
812.4 	 38
833.8 	 26
833.9 	 32
834.0 	 33
834.1 	 50
834.2 	 81
834.3 	 96
834.4 	 72
834.5 	 39
834.6 	 18
852.7 	 54
852.8 	 271
852.9 	 975
853.0 	 2113
853.1 	 6384
853.2 	 11884
853.3 	 14311
853.4 	 9556
853.5 	 4116
853.6 	 1474
853.7 	 1520
853.8 	 1066
853.9 	 603
854.0 	 269
854.1 	 145
854.2 	 179
854.3 	 165
854.4 	 113
854.5 	 55
854.6 	 23
854.7 	 25
854.8 	 23
855.2 	 30
855.3 	 50
855.4 	 37
855.8 	 20
855.9 	 24
856.0 	 27
856.1 	 87
856.2 	 180
856.3 	 246
856.4 	 203
856.5 	 136
856.6 	 94
856.7 	 91
856.8 	 80
856.9 	 49
857.0 	 16
860.7 	 49
860.8 	 84
860.9 	 72
861.0 	 41
861.1 	 22
861.2 	 26
861.3 	 28
861.4 	 16
869.8 	 16
944.6 	 15
944.7 	 28
944.8 	 32
944.9 	 22
995.1 	 41
995.2 	 122
995.3 	 231
995.4 	 282
995.5 	 285
995.6 	 303
995.7 	 333
995.8 	 318
995.9 	 221
996.0 	 136
996.1 	 91
996.2 	 80
996.3 	 56
996.4 	 28
999.1 	 15
999.2 	 20
999.3 	 20
999.4 	 16
999.5 	 15
999.6 	 17
999.7 	 19
999.8 	 16
1020.3 	 17
1194.5 	 17
1194.6 	 33
1194.7 	 59
1194.8 	 79
1194.9 	 68
1195.0 	 43
1195.1 	 29
1195.2 	 34
1195.3 	 39
1195.4 	 31
1195.5 	 21
1493.6 	 16
1493.7 	 20
1493.8 	 21
1493.9 	 19
