##Deconvoluted mass spectrum
1000.0 	 1
1619.3 	 0
1619.5 	 7
1619.6 	 13
1619.7 	 27
1619.8 	 43
1619.9 	 56
1620.0 	 70
1620.1 	 102
1620.2 	 136
1620.3 	 186
1620.4 	 238
1620.5 	 283
1620.6 	 327
1620.7 	 316
1620.8 	 294
1620.9 	 253
1621.0 	 208
1621.1 	 176
1621.2 	 146
1621.3 	 136
1621.4 	 130
1621.5 	 115
1621.6 	 99
1621.7 	 74
1621.8 	 48
1621.9 	 28
1622.0 	 10
1622.1 	 6
1622.6 	 2
1622.7 	 0
5668.7 	 0
5668.9 	 21
5669.0 	 24
5669.1 	 26
5669.2 	 29
5669.3 	 31
5669.4 	 34
5669.5 	 36
5669.6 	 37
5669.7 	 39
5669.8 	 40
5669.9 	 42
5670.0 	 43
5670.1 	 45
5670.2 	 46
5670.3 	 47
5670.4 	 49
5670.5 	 50
5670.6 	 51
5670.7 	 53
5670.8 	 54
5670.9 	 56
5671.0 	 58
5671.1 	 60
5671.2 	 61
5671.3 	 63
5671.4 	 64
5671.5 	 66
5671.6 	 67
5671.7 	 69
5671.8 	 70
5671.9 	 70
5672.0 	 69
5672.1 	 67
5672.2 	 66
5672.3 	 64
5672.4 	 63
5672.5 	 60
5672.6 	 58
5672.7 	 55
5672.8 	 52
5672.9 	 49
5673.0 	 46
5673.1 	 44
5673.2 	 41
5673.3 	 39
5673.4 	 37
5673.5 	 34
5673.6 	 32
5673.7 	 31
5673.8 	 30
5673.9 	 30
5674.0 	 30
5674.1 	 30
5674.2 	 29
5674.3 	 29
5674.4 	 29
5674.5 	 29
5674.6 	 29
5674.7 	 29
5674.8 	 29
5674.9 	 28
5675.0 	 27
5675.1 	 25
5675.2 	 24
5675.3 	 22
5675.5 	 0
5863.2 	 0
5863.3 	 4
5863.4 	 9
5863.5 	 14
5863.6 	 18
5863.7 	 23
5863.8 	 28
5863.9 	 32
5864.0 	 39
5864.1 	 49
5864.2 	 59
5864.3 	 68
5864.4 	 78
5864.5 	 104
5864.6 	 114
5864.7 	 126
5864.8 	 137
5864.9 	 183
5865.0 	 202
5865.1 	 221
5865.2 	 240
5865.3 	 259
5865.4 	 275
5865.5 	 288
5865.6 	 301
5865.7 	 314
5865.8 	 327
5865.9 	 340
5866.0 	 354
5866.1 	 372
5866.2 	 395
5866.3 	 419
5866.4 	 443
5866.5 	 464
5866.6 	 481
5866.7 	 498
5866.8 	 518
5866.9 	 543
5867.0 	 568
5867.1 	 593
5867.2 	 618
5867.3 	 642
5867.4 	 662
5867.5 	 680
5867.6 	 694
5867.7 	 708
5867.8 	 722
5867.9 	 736
5868.0 	 749
5868.1 	 765
5868.2 	 768
5868.3 	 753
5868.4 	 738
5868.5 	 722
5868.6 	 706
5868.7 	 691
5868.8 	 677
5868.9 	 660
5869.0 	 639
5869.1 	 618
5869.2 	 598
5869.3 	 577
5869.4 	 557
5869.5 	 536
5869.6 	 519
5869.7 	 506
5869.8 	 489
5869.9 	 457
5870.0 	 440
5870.1 	 423
5870.2 	 406
5870.3 	 396
5870.4 	 393
5870.5 	 387
5870.6 	 374
5870.7 	 361
5870.8 	 348
5870.9 	 336
5871.0 	 322
5871.1 	 308
5871.2 	 294
5871.3 	 280
5871.4 	 266
5871.5 	 253
5871.6 	 240
5871.7 	 225
5871.8 	 209
5871.9 	 193
5872.0 	 177
5872.1 	 163
5872.2 	 152
5872.3 	 141
5872.4 	 130
5872.5 	 119
5872.6 	 108
5872.7 	 98
5872.8 	 87
5872.9 	 78
5873.0 	 71
5873.1 	 65
5873.2 	 60
5873.3 	 56
5873.4 	 51
5873.5 	 46
5873.6 	 42
5873.7 	 36
5873.8 	 27
5873.9 	 26
5874.0 	 24
5874.1 	 22
5874.2 	 20
5874.3 	 18
5874.4 	 16
5874.6 	 0
5994.4 	 0
5994.5 	 12
5994.6 	 13
5994.7 	 14
5994.8 	 14
5994.9 	 15
5995.0 	 15
5995.1 	 16
5995.2 	 17
5995.3 	 18
5995.4 	 21
5995.5 	 24
5995.6 	 27
5996.5 	 53
5996.6 	 55
5996.7 	 58
5996.8 	 61
5996.9 	 76
5997.0 	 150
5997.1 	 198
5997.2 	 247
5997.3 	 295
5997.4 	 344
5997.5 	 392
5997.6 	 440
5997.7 	 583
5997.8 	 723
5997.9 	 862
5998.0 	 1002
5998.1 	 1141
5998.2 	 1281
5998.3 	 1426
5998.4 	 1558
5998.5 	 1666
5998.6 	 1790
5998.7 	 1898
5998.8 	 2007
5998.9 	 2114
5999.0 	 2200
5999.1 	 2541
5999.2 	 3200
5999.3 	 3853
5999.4 	 4497
5999.5 	 5118
5999.6 	 5742
5999.7 	 6366
5999.8 	 7198
5999.9 	 8288
6000.0 	 9378
6000.1 	 10493
6000.2 	 11646
6000.3 	 12800
6000.4 	 13954
6000.5 	 14986
6000.6 	 15868
6000.7 	 16757
6000.8 	 17653
6000.9 	 18557
6001.0 	 19475
6001.1 	 20404
6001.2 	 20709
6001.3 	 20247
6001.4 	 19778
6001.5 	 19310
6001.6 	 18840
6001.7 	 18331
6001.8 	 17791
6001.9 	 17059
6002.0 	 16097
6002.1 	 15134
6002.2 	 14172
6002.3 	 13209
6002.4 	 12247
6002.5 	 11217
6002.6 	 10240
6002.7 	 9468
6002.8 	 8695
6002.9 	 7922
6003.0 	 7150
6003.1 	 6388
6003.2 	 5636
6003.3 	 5119
6003.4 	 4890
6003.5 	 4662
6003.6 	 4433
6003.7 	 4214
6003.8 	 4003
6003.9 	 3793
6004.0 	 3567
6004.1 	 3346
6004.2 	 3169
6004.3 	 2988
6004.4 	 2806
6004.5 	 2623
6004.6 	 2431
6004.7 	 2259
6004.8 	 2098
6004.9 	 1962
6005.0 	 1868
6005.1 	 1775
6005.2 	 1681
6005.3 	 1588
6005.4 	 1505
6005.5 	 1436
6005.6 	 1367
6005.7 	 1293
6005.8 	 1209
6005.9 	 1125
6006.0 	 1041
6006.1 	 976
6006.2 	 933
6006.3 	 891
6006.4 	 826
6006.5 	 783
6006.6 	 735
6006.7 	 687
6006.8 	 651
6006.9 	 628
6007.0 	 621
6007.1 	 597
6007.2 	 573
6007.3 	 553
6007.4 	 538
6007.5 	 519
6007.6 	 494
6007.7 	 469
6007.8 	 444
6007.9 	 406
6008.0 	 381
6008.1 	 361
6008.2 	 134
6008.3 	 126
6008.4 	 118
6008.5 	 111
6008.6 	 266
6008.7 	 246
6008.8 	 226
6008.9 	 210
6009.0 	 201
6009.1 	 192
6009.2 	 183
6009.3 	 174
6009.4 	 164
6009.5 	 155
6009.6 	 150
6009.7 	 147
6009.8 	 142
6009.9 	 138
6010.0 	 133
6010.1 	 128
6010.2 	 123
6010.3 	 121
6010.4 	 122
6010.5 	 45
6010.6 	 48
6010.7 	 51
6010.8 	 54
6010.9 	 57
6011.0 	 59
6011.1 	 60
6011.2 	 61
6011.3 	 62
6011.4 	 63
6011.5 	 64
6011.6 	 65
6011.7 	 65
6011.8 	 64
6011.9 	 62
6012.0 	 60
6012.1 	 58
6012.2 	 57
6012.3 	 55
6012.4 	 53
6012.5 	 50
6012.6 	 47
6012.7 	 45
6012.8 	 42
6012.9 	 39
6013.0 	 36
6013.1 	 35
6013.2 	 35
6013.3 	 34
6013.4 	 34
6013.5 	 34
6013.6 	 33
6013.7 	 33
6013.8 	 34
6013.9 	 37
6014.0 	 40
6014.1 	 43
6014.2 	 46
6014.3 	 49
6014.4 	 51
6014.5 	 99
6014.6 	 102
6014.7 	 104
6014.8 	 106
6014.9 	 45
6015.0 	 45
6015.1 	 45
6015.2 	 114
6015.3 	 112
6015.4 	 108
6015.5 	 104
6015.6 	 100
6015.7 	 97
6015.8 	 93
6015.9 	 89
6016.0 	 84
6016.1 	 80
6016.2 	 77
6016.3 	 74
6016.4 	 71
6016.5 	 68
6016.6 	 66
6016.7 	 67
6016.8 	 67
6016.9 	 68
6017.0 	 72
6017.1 	 74
6017.2 	 77
6017.3 	 81
6017.4 	 87
6017.5 	 93
6017.6 	 99
6017.7 	 105
6017.8 	 111
6017.9 	 117
6018.0 	 122
6018.1 	 127
6018.2 	 131
6018.3 	 135
6018.4 	 140
6018.5 	 142
6018.6 	 143
6018.7 	 141
6018.8 	 137
6018.9 	 133
6019.0 	 128
6019.1 	 124
6019.2 	 120
6019.3 	 131
6019.4 	 126
6019.5 	 121
6019.6 	 116
6019.7 	 112
6019.8 	 107
6019.9 	 100
6020.0 	 93
6020.1 	 90
6020.2 	 94
6020.3 	 98
6020.4 	 102
6020.5 	 106
6020.6 	 109
6020.7 	 112
6020.8 	 118
6020.9 	 130
6021.0 	 146
6021.1 	 162
6021.2 	 179
6021.3 	 197
6021.4 	 214
6021.5 	 230
6021.6 	 245
6021.7 	 261
6021.8 	 278
6021.9 	 295
6022.0 	 312
6022.1 	 330
6022.2 	 340
6022.3 	 341
6022.4 	 342
6022.5 	 342
6022.6 	 338
6022.7 	 334
6022.8 	 331
6022.9 	 323
6023.0 	 310
6023.1 	 297
6023.2 	 284
6023.3 	 270
6023.4 	 232
6023.5 	 218
6023.6 	 205
6023.7 	 193
6023.8 	 181
6023.9 	 170
6024.0 	 158
6024.1 	 146
6024.2 	 136
6024.3 	 128
6024.4 	 124
6024.5 	 120
6024.6 	 117
6024.7 	 113
6024.8 	 109
6024.9 	 106
6025.0 	 105
6025.1 	 104
6025.2 	 104
6025.3 	 103
6025.4 	 102
6025.5 	 101
6025.6 	 100
6025.7 	 98
6025.8 	 94
6025.9 	 90
6026.0 	 86
6026.1 	 81
6026.2 	 77
6026.3 	 73
6026.4 	 68
6026.5 	 63
6026.6 	 57
6026.7 	 51
6026.8 	 45
6026.9 	 39
6027.0 	 34
6027.1 	 30
6027.2 	 30
6027.3 	 30
6027.4 	 30
6027.5 	 8
6027.6 	 8
6028.2 	 26
6028.3 	 27
6028.4 	 28
6028.5 	 34
6028.6 	 36
6028.7 	 37
6028.8 	 38
6028.9 	 40
6029.0 	 44
6029.1 	 47
6029.2 	 12
6029.3 	 14
6029.4 	 16
6029.5 	 18
6029.6 	 20
6029.7 	 22
6029.8 	 23
6029.9 	 25
6030.0 	 27
6030.1 	 29
6030.2 	 30
6030.3 	 32
6030.4 	 34
6030.6 	 0
7529.0 	 0
7538.6 	 30
7538.7 	 29
7538.8 	 28
7538.9 	 28
7539.0 	 27
7539.1 	 26
7539.2 	 24
7539.3 	 22
7539.4 	 20
7539.5 	 18
7539.6 	 17
7539.7 	 15
7539.8 	 13
7539.9 	 11
7540.0 	 9
7540.1 	 8
7540.2 	 7
7540.3 	 7
7540.4 	 6
7540.5 	 6
7540.6 	 5
7540.7 	 4
7540.8 	 4
7540.9 	 3
7541.0 	 2
7541.1 	 2
7541.2 	 4
7541.3 	 5
7541.4 	 6
7541.5 	 8
7541.6 	 9
7541.7 	 11
7541.8 	 12
7541.9 	 14
7542.0 	 15
7542.1 	 16
7542.2 	 17
7542.3 	 18
7542.4 	 19
7542.5 	 20
7542.6 	 21
7542.7 	 22
7542.8 	 22
7542.9 	 23
7543.0 	 24
7543.1 	 25
7543.2 	 24
7543.3 	 23
7543.4 	 22
7543.5 	 21
7543.6 	 20
7543.7 	 19
7543.8 	 18
7543.9 	 18
7544.0 	 17
7544.1 	 16
7544.2 	 14
7544.3 	 13
7544.4 	 12
7544.5 	 10
7544.6 	 9
7544.7 	 7
7544.8 	 6
7544.9 	 4
7545.0 	 3
7545.1 	 2
7545.2 	 3
7545.3 	 3
7545.4 	 4
7545.5 	 4
7546.6 	 10
7546.7 	 11
7546.8 	 12
7546.9 	 12
7547.0 	 13
7547.1 	 13
7547.2 	 14
7547.3 	 15
7547.4 	 16
7547.5 	 17
7547.6 	 18
7547.7 	 19
7547.8 	 20
7547.9 	 20
7548.0 	 21
7548.1 	 22
7548.2 	 21
7548.3 	 21
7548.4 	 20
7548.5 	 20
7548.6 	 19
7548.7 	 18
7548.8 	 18
7548.9 	 17
7549.0 	 16
7549.2 	 0
8000.0 	 1
##ESI mass spectrum
##Adduct mass = -1.0079
665.7 	 13
665.8 	 19
665.9 	 15
666.3 	 14
707.7 	 11
707.8 	 18
707.9 	 17
708.0 	 12
732.1 	 31
732.2 	 94
732.3 	 165
732.4 	 181
732.5 	 164
732.6 	 181
732.7 	 221
732.8 	 222
732.9 	 142
733.0 	 69
733.1 	 35
733.2 	 30
733.3 	 15
748.3 	 12
748.4 	 17
748.6 	 63
748.7 	 344
748.8 	 807
748.9 	 1244
749.0 	 1569
749.1 	 2326
749.2 	 3258
749.3 	 3638
749.4 	 2603
749.5 	 1424
749.6 	 792
749.7 	 736
749.8 	 552
749.9 	 316
750.0 	 145
750.1 	 82
750.2 	 95
750.3 	 78
750.4 	 43
750.5 	 12
750.7 	 28
750.8 	 45
750.9 	 45
751.0 	 30
751.1 	 25
751.2 	 39
751.3 	 57
751.4 	 46
751.5 	 20
751.6 	 15
751.7 	 46
751.8 	 80
751.9 	 77
752.0 	 49
752.1 	 26
752.2 	 22
752.3 	 18
752.4 	 9
752.6 	 5
752.7 	 21
752.8 	 35
752.9 	 26
753.0 	 8
753.1 	 2
753.2 	 16
753.3 	 25
753.4 	 16
753.5 	 2
753.7 	 13
753.8 	 22
753.9 	 16
754.0 	 4
754.3 	 2
754.8 	 2
757.3 	 2
762.1 	 2
762.2 	 12
762.3 	 20
762.4 	 14
762.5 	 4
763.2 	 4
763.3 	 5
763.4 	 3
764.2 	 12
764.3 	 28
764.4 	 33
764.5 	 31
764.6 	 47
764.7 	 74
764.8 	 77
764.9 	 40
765.0 	 7
771.3 	 2
782.2 	 5
782.3 	 8
782.4 	 5
785.2 	 2
785.3 	 4
785.4 	 2
788.3 	 2
789.9 	 5
790.0 	 8
790.1 	 16
790.2 	 28
790.3 	 43
790.4 	 38
790.5 	 25
790.6 	 10
790.7 	 3
808.7 	 2
808.8 	 14
808.9 	 45
809.0 	 72
809.1 	 142
809.2 	 246
809.3 	 334
809.4 	 291
809.5 	 201
809.6 	 141
809.7 	 129
809.8 	 96
809.9 	 44
810.0 	 7
810.3 	 2
811.1 	 2
811.2 	 18
811.3 	 49
811.4 	 79
811.5 	 100
811.6 	 127
811.7 	 150
811.8 	 148
811.9 	 94
812.0 	 38
812.1 	 10
812.2 	 11
812.3 	 11
812.4 	 6
814.7 	 6
814.8 	 12
814.9 	 12
815.0 	 9
815.1 	 6
815.2 	 5
815.3 	 3
836.6 	 2
836.7 	 35
836.8 	 103
836.9 	 176
837.0 	 208
837.1 	 312
837.2 	 477
837.3 	 596
837.4 	 476
837.5 	 294
837.6 	 175
837.7 	 156
837.8 	 126
837.9 	 78
838.0 	 33
838.1 	 5
839.1 	 2
839.2 	 8
839.3 	 18
839.4 	 26
839.5 	 33
839.6 	 52
839.7 	 72
839.8 	 70
839.9 	 35
840.2 	 13
840.3 	 20
840.4 	 13
855.7 	 33
855.8 	 126
855.9 	 484
856.0 	 559
856.1 	 4662
856.2 	 12029
856.3 	 17495
856.4 	 13359
856.5 	 6553
856.6 	 2329
856.7 	 1898
856.8 	 1225
856.9 	 692
857.0 	 323
857.1 	 195
857.2 	 242
857.3 	 217
857.4 	 132
857.5 	 57
857.6 	 38
857.7 	 59
857.8 	 66
857.9 	 54
858.0 	 35
858.1 	 33
858.2 	 53
858.3 	 70
858.4 	 57
858.5 	 39
858.6 	 47
858.7 	 75
858.8 	 89
858.9 	 68
859.0 	 43
859.1 	 80
859.2 	 174
859.3 	 251
859.4 	 221
859.5 	 143
859.6 	 86
859.7 	 80
859.8 	 78
859.9 	 52
860.0 	 19
860.2 	 28
860.3 	 38
860.4 	 23
860.7 	 19
860.8 	 36
860.9 	 33
861.0 	 20
861.1 	 20
861.2 	 32
861.3 	 36
861.4 	 19
892.3 	 14
943.8 	 20
943.9 	 35
944.0 	 44
944.1 	 52
944.2 	 62
944.3 	 71
944.4 	 62
944.5 	 45
944.6 	 31
944.7 	 29
944.8 	 29
944.9 	 20
946.5 	 12
946.6 	 20
946.7 	 30
946.8 	 36
946.9 	 28
947.0 	 22
947.1 	 25
947.2 	 32
947.3 	 27
947.4 	 12
976.4 	 15
976.5 	 22
976.6 	 25
976.7 	 24
976.8 	 24
976.9 	 20
977.0 	 14
977.1 	 11
977.2 	 14
977.3 	 16
998.6 	 53
998.7 	 236
998.8 	 481
998.9 	 579
999.0 	 560
999.1 	 599
999.2 	 720
999.3 	 752
999.4 	 536
999.5 	 301
999.6 	 180
999.7 	 173
999.8 	 139
999.9 	 77
1000.0 	 26
1000.2 	 13
1000.3 	 13
1002.2 	 15
1002.3 	 27
1002.4 	 23
1002.5 	 12
1002.6 	 11
1002.7 	 23
1002.8 	 29
1002.9 	 21
1148.3 	 12
1198.7 	 16
1198.8 	 29
1198.9 	 35
1199.0 	 36
1199.1 	 36
1199.2 	 37
1199.3 	 37
1199.4 	 29
1199.5 	 20
1199.6 	 17
1199.7 	 20
1199.8 	 19
1199.9 	 11
1498.7 	 11
1498.8 	 14
1499.3 	 12
1499.4 	 14
